ax,ay,az,gx,gy,gz,amp10x,gvec,label
0.5720803433041285,-0.3078597768841241,0.27578514158420175,61.70752103452912,48.59430557440375,44.80826832806768,7.057697965602739,90.42679689696796,1
-0.3716818256300804,0.7325064500578079,0.6476110986610838,89.12539118552073,47.6155693235268,79.96093140123256,10.459986682539405,128.85778341461685,1
0.028693342625783727,-0.8161270446461779,0.7535109811973826,95.82379427453795,6.484313892473217,25.172669706649504,11.11155011552838,99.28700406390135,1
-2.1070450154908076,-0.453714044630929,0.2301796519317002,51.024705468859764,60.04229604185015,38.84300378870583,21.675972420547627,87.84860172757719,1
0.6240215217450846,0.8386177700004195,-0.14028657938184746,13.835680615053732,45.77416882710064,44.6072678786286,10.546861846616686,65.39502226843734,1
-1.1027043552251594,-0.29057442669136974,0.657235298262022,22.10192413761896,16.081538183457088,39.81864694432637,13.1618715605385,48.297366029711846,1
-0.14107827239080659,0.014666605085967106,0.06632156042084231,69.90575430761399,60.25764396476992,35.228341191901414,1.5657821566928707,98.78681169384141,1
1.374362041107641,0.19447205036975787,0.21890952418435045,62.833381724522646,46.596288979363536,34.67035926376218,14.052088023461842,85.5644892292724,1
1.1107054544957304,-2.0037606656679063,0.6925390982732904,67.20289284609755,20.488428142567,11.93677455686025,23.93393785936957,71.26353261983654,1
2.40551566070235,0.7374392981896768,0.23614201668947574,47.174786165358256,26.180519968611733,30.163594224242367,25.270705103825097,61.81199310893398,1
-1.004989635962067,0.44710082631470344,-0.11749184617297559,72.41173074325275,66.10510103335099,24.896454041635607,11.062132033200438,101.1591644672402,1
0.6461544642272137,-1.8272574768180712,1.3031866850631806,57.23856362336807,44.28442946611737,57.18796205884374,23.355258539254628,92.23788193171843,1
-0.4418800397353178,-1.945321830907996,0.3628397729910278,35.72671463070301,12.087323026081386,21.55384570426332,20.27606395775054,43.44041644463962,1
-2.431080405181411,0.8518834409354331,0.6555675475827425,53.34033441424948,10.218442920308703,5.567744617747259,26.581245536732588,54.59494144394724,1
-0.24273345900609253,1.2374798328004057,0.05072294309786357,49.38964606880234,19.52613698570243,27.929078156174526,12.620810931415189,60.00533785455828,1
-1.082993374537334,0.42738205926394457,0.8366309598485635,48.05145380888151,84.46340349039154,30.89702695907293,14.33695029233756,101.96879433060607,1
-0.0652612425245543,-0.6305184062399581,0.6539530329067602,61.08180848993314,48.210751480321115,30.680370967216714,9.107508219217678,83.64537673645918,1
-0.9983269231485673,3.7111029909863613,-1.7135024496517381e-07,44.150828382968555,35.86912832987096,41.43340034962369,38.43038128251037,70.37482986536656,1
0.7810991062095015,-0.8271941675264313,0.3920298754691192,56.348179204042694,62.89805295401047,74.2939455146387,12.033509163046999,112.47609837271436,1
0.7543715236620446,1.3236701103214856,-0.09850245557903403,36.40207067581794,47.656023237774505,68.9300509946678,15.267225322322941,91.36497813962444,1
-0.31327742234291317,0.24749880381683573,-0.3221984228449581,69.33540615461888,97.27787369188684,35.693422336444414,5.130401786647542,124.67719781390838,1
-0.9088848092273124,0.012766453234286875,0.030604193947838337,60.292595514701475,42.306430118474864,35.99673747859369,9.094895246563032,81.98046238203094,1
0.9321368624741225,1.2941944928670863,0.4438427838386249,89.13696393632131,31.15836169054558,34.19857535984025,16.555406767929973,100.4280060524283,1
0.09995737415770985,-0.18765215361327056,0.35591722820816846,48.363264231253666,1.9310322076563011,49.18476039398928,4.145863971955524,69.00633932837766,1
-0.7394717547677847,1.097871672916333,0.13641888581854228,84.58368956111894,6.0741097259816,41.98820155858594,13.306956070790294,94.62718646805179,1
1.1550172577810731,0.9343351012545508,0.3271389023615039,81.08434028726728,36.2547467566772,48.70960953656851,15.21205708852932,101.30006398525677,1
0.40888194963979685,1.1651930584650938,0.6051854000454547,98.11307704735957,38.50698440421926,57.34172317316573,13.75175872630355,119.98765333181524,1
1.9461767919039126,2.6124621631268865,-0.3001033495629,52.0003649017487,63.26968569706949,67.43685393588791,32.714866161324714,106.08873807757004,1
0.20664753769516991,0.6775260738318042,0.06824537937090644,51.86657912917529,36.057139675246404,55.01968460233449,7.116194329575992,83.77007249527479,1
-0.20844219438611952,-0.38674965380481985,0.43041306798934764,29.00948137969367,87.29144128331008,51.95656834284242,6.150437807299994,105.64483293186099,1
0.8173166158056367,-0.49751195687972305,-0.3356229901987951,31.034563603492348,26.91742571066697,42.44544742466833,10.139858920420199,59.07036441422019,1
0.7849033401870834,-1.6587078732693983,0.06360734888326844,89.09288066296953,61.216701541219884,41.04349351087159,18.361456797091805,115.62696178655688,1
0.07689300917142194,-0.2731872659519162,1.1328604161386282,68.07361293751711,37.10989241292688,37.482077428133785,11.678683742577778,86.1165897002112,1
1.6385658032713484,-0.45116627850930724,0.47143771769467696,65.36361291280679,13.490219861259618,42.09103853458666,17.637183517158807,78.9052815078967,1
-0.6830188900960344,0.5717099668174953,-0.03279203765891134,64.48848879319868,34.62018297040555,68.89463721405292,8.913149881609217,100.51762677556029,1
0.6805279704680683,1.29483239173677,0.21673580135356998,21.390560103029888,56.850849057459925,73.17885779037725,14.787439429693453,95.1037345616863,1
1.0683033301824014,-1.9645216996050165,0.12262280192367947,87.08007906804659,8.571848292676965,23.053490061960034,22.395655527466495,90.48690600129284,1
-1.700240590295096,0.09227449453906642,0.12031358460432269,46.056945277717446,45.60140778147526,7.5859196157746,17.06987992303929,65.25547315270992,1
-0.7064513236177311,0.09607573106893162,0.18625823901653946,62.71851063453669,0.15699736182286017,54.46314955433365,7.36882724959146,83.06546143713297,1
1.0898145838324214,-1.6556281599041887,-0.38578310007378974,46.52285176645984,33.201793003370234,32.44331460590516,20.193140001753335,65.72140791051558,1
-1.6386638902611017,-0.35964567333270064,0.17121856008747038,24.228237436814698,29.873562654730808,81.2530268860904,16.863807846720164,89.89711682324703,1
0.37482380899059703,1.4207057213728371,1.0703104580830185,89.90051775501934,75.08586840915721,56.58207335443779,18.178179532641913,130.08274963447226,1
0.828707920116073,0.6890174280513833,0.09300357854187942,55.72531905699474,27.30738970735125,54.75107485644847,10.817354106449722,82.75678168325203,1
-0.8677355110250605,0.5791951878591083,0.14710417399862777,21.807875758940828,13.12324774055972,65.38066825155329,10.53599364436449,70.16006597343801,1
0.6452037914273986,-1.4421923664929093,0.17183635523709256,23.585104799252537,68.04616822879134,50.91133683088169,15.892559540312806,88.195818477523,1
-1.948390377724365,-1.048551394098146,0.5448729616747083,62.6315823095503,26.459986325936175,17.065184638994687,22.787214911959353,70.10040303542972,1
-0.32122734795215957,0.6441924822199854,0.44364441341307015,35.44061562820293,82.23396738538706,39.2137092952105,8.455715988452729,97.75570379643432,1
-1.1021039234408752,1.2599698435953437,0.22822018767043234,46.82458241395751,10.304057881540775,59.14856922074634,16.894500640426674,76.13979490338191,1
-1.2157420763996183,-0.1395882419600077,-0.110859171659971,16.94635906137738,22.68287356198345,57.63188461159555,12.287405867647882,64.2115718726019,1
-2.1120991056511373,-0.1479230764636561,0.43932432594468085,16.089459787162717,82.47518266754119,47.29152997056541,21.623713214916528,96.42362407233976,1
-1.5302407415675947,2.991091040865345,-0.09244242413051124,30.12866416915457,55.55978927405793,24.57045959161748,33.61072439516501,67.81101734481446,1
0.7700072492355757,0.2616916859211833,-0.1881803436502303,53.8741686370783,18.260501108741597,46.86417321077268,8.347487910095635,73.70293534051413,1
0.6796631620605827,1.7349367836404495,-0.1836078141097603,72.91286694353167,37.77270258158483,42.45789893134924,18.723406438180586,92.44315230403325,1
-0.6122245339419687,2.2911521149218115,0.4427645325650936,43.641271101106256,12.019856466159492,58.44905058310722,24.125168030438125,73.92786353502957,1
-1.1147362095167552,0.25389670112478063,0.49387014345679764,41.00946255624719,5.388981274561637,32.268657340709325,12.453947447487755,52.46030294329161,1
-0.42274992035651304,-1.857295430229533,-0.06985312588289394,26.84760123268085,38.13776339860779,28.56112969641369,19.060806041478298,54.69022598721455,1
1.1312257888843218,-0.9717736077733468,0.3964664711032115,61.615632060765954,30.272850060392607,58.93953087589009,15.431141866079827,90.48093647225753,1
-0.8828845734591181,1.6216941750068528,-0.3292331448904345,66.32103792667189,42.46402066291838,65.51059343609168,18.75572347577585,102.43686335924538,1
-1.4430961489564242,-1.1089677556840436,0.440902436488032,74.90008642459514,27.8520448888247,29.748548606657153,18.726267478546944,85.26860791113909,1
-0.9001723840102785,-0.6489759548661459,-0.11842852475815224,34.139040314439015,28.425769970849696,17.568479230915536,11.1602214422724,47.771852952483044,1
-2.0373800571681624,-0.6704831031742045,0.8348306788776618,42.85355745578673,24.420479085843148,65.21146427289612,23.016097304677857,81.76381998178488,1
0.5395693348692501,2.928919251429574,-0.06533310193563774,26.63632347222903,56.46097418458092,75.52201044638937,29.78921191091593,97.98423034271218,1
0.647844865573057,0.22724723107400024,0.4237068732438532,78.8617763260689,47.1387367930594,56.86137239701268,8.067662538271263,108.048396298233,1
-1.9565766202219634,-0.1106636079575052,-0.3009697111310165,40.46912356196832,12.16551505379238,90.76614600994357,19.826803252021396,100.12114152313838,1
-0.3075388652794711,-3.0858617524588214,0.32351956024904677,40.71821376278565,39.60844929906911,75.65568633941177,31.179781613746673,94.60753174772235,1
-0.7007071722393182,2.0645823830521963,0.5922192666673765,64.97072963683684,48.812303739329074,25.80404772918502,22.592508974102795,85.26245120270426,1
0.7191520271723747,1.4507338960867107,0.02527774482040729,48.60249375248853,19.72468808773772,31.984136233491263,16.193972458369405,61.43493053403542,1
-0.1607087563382508,1.2849710065661997,0.0854720762055741,46.203644641986806,39.78740496560196,60.06566929659517,12.97799394317331,85.59029734816755,1
1.736867145614914,-1.2692402570504133,1.1567380424039477,55.18824763351343,15.36987282683711,34.24461821523977,24.424825916223874,66.743310857933,1
-0.43137214263620954,0.11282729318038903,0.43196209494725174,52.42272666238024,39.92019923301807,29.12501193613592,6.208084849614947,72.04186906100193,1
-1.5734138468156702,-0.6265846022274246,0.14557750947609152,21.259287446307443,42.077162367199065,11.855035673457891,16.99832994257097,48.61056229277046,1
0.26548506589275617,2.8844046985342398,0.6449271773469474,69.02069566170843,52.9757639833997,57.93259438403841,29.675248691829324,104.52977322904975,1
-0.5731792309154823,-0.1780436394506199,0.7617852031405072,29.23568525482761,56.418171560274175,48.91585629512055,9.698199131929133,80.19037580413723,1
0.15511035670955758,-1.1290476104621203,-0.10476695278318532,41.036088652141,74.53197216555105,83.10163709860709,11.444578820752923,118.93215517773754,1
-0.7215060778818202,3.37514098831829,0.4986087081856354,46.79036019955004,2.688618558046599,69.76464650875866,34.87227889789412,84.04565651981285,1
-0.2896642189468636,-0.05126843000154365,0.2568870647369877,65.37303285882413,60.67480901085659,47.852323428106985,3.9054420451736966,101.21714642852258,1
0.8842805478647202,1.8999616954157257,-0.3785733114970045,19.51712445109177,61.19607350737559,65.46755417230466,21.29583124359492,91.71629194893984,1
-0.4727521599907193,-1.81935976854609,-0.35108709393929044,19.101813833693452,47.29114189650262,72.42599667711491,19.122831170385595,88.58248352967809,1
-0.015215692895072434,0.7008203747038265,0.24246839095027828,62.45928798513302,57.003950309835204,74.86396915651733,7.4173555632739205,112.93904056792726,1
-2.7774200730024576,-0.26627713442128,-0.04534377969131764,14.665993873295868,38.96788204144974,28.236684206522305,27.905235767843422,50.308026616701625,1
0.5027663519780855,0.156942083544228,-0.15454703566958988,43.78966349414861,2.0756947827906487,0.9120351413630914,5.488985411738795,43.84831748039094,1
0.8128227526597107,0.06223677477318638,0.760146268119217,65.75506180440209,70.93772015190447,41.80387481569756,11.146194831919322,105.3729198744021,1
0.516338208350087,1.5677532561356216,0.6257595723055804,49.17250648472966,56.65184901475426,3.6972547407096883,17.6522816085006,75.10683779389859,1
0.5562149256156919,-0.8354747394325525,0.48248008427678374,22.183269363853103,37.22936645137378,30.61524147269851,11.13633743845477,53.06049544125627,1
0.43474923927876374,-0.6165252934874453,0.13077361183753894,74.68282033350064,62.1688937964486,75.36079106712225,7.656448759812083,122.97049987335376,1
0.7611468010777448,0.5698843398491278,-0.18742445192748403,36.50806654205226,-20.479851393379107,62.123745976360325,9.691442301208205,74.91076724923563,1
0.6565186448271719,1.7532892214504947,0.39877789853418333,52.44190598963283,21.25899766601571,75.84741175432816,19.141744009936836,94.63048322512014,1
-0.6831293736017732,-1.696407216941374,0.5710100240740754,47.1037620031636,45.72066832793199,21.448189857056438,19.158589808128898,69.0591685103997,1
0.46724479921257916,1.1909861117064913,0.9362248139404274,13.610841807301249,28.40587365826382,8.341077245318253,15.853335683403474,32.58407958812082,1
-1.6922394910947784,-0.9214529074447617,0.8398069573178621,54.78492355286369,47.324556476701005,6.772948069967924,21.019100079257925,72.71089546944161,1
0.7691479261774395,-1.0053395638485754,0.061957153382427604,27.3003369948961,33.11507963207732,12.87457558705215,12.673337602374339,44.8070485037838,1
0.5837872030005217,-2.2270129371820553,1.1426916247229513,50.16765173076265,43.884701002595286,71.6892298998863,25.702408972653505,97.88772111917322,1
-1.5837772376841812,-0.5996727466620346,-0.4807359473054959,24.514801983971406,51.78889933025061,42.408964751917594,17.604160851138108,71.28524322383664,1
-0.5531157653988943,-1.0926174209719643,0.33098586038239064,48.72517837538265,22.36546321983388,49.5146423796375,12.685824838445875,72.97983805637001,1
0.44445549101163484,2.314291675547967,0.9301259725243292,57.872580185488744,62.186714102022805,37.711743867190236,25.334997469440058,92.9440615297024,1
-0.9442556820993491,-0.18574878215498522,0.012578827202884085,59.30288213219332,36.818078474788855,26.753234448281965,9.624342212030738,74.7538513068408,1
-2.769648325680188,-0.12954584456693227,-0.07298756963908504,69.76982328735372,38.751965883127426,36.341759246294174,27.736368109594753,87.69416495110289,1
0.21925147746423318,0.24918566818000046,0.32923217365864,57.09360672956764,87.00467111512344,29.010927659548123,4.675024403878073,108.0329887067319,1
-0.3321300998645343,-0.028954387984006857,-0.14651674287856886,39.467637840633095,38.139423822216386,24.15446847157998,3.6416468220202054,59.964559811229925,1
-2.30417451763141,1.1263440019997184,0.08638608876198794,49.42780127244689,32.64754993910483,59.474109933978355,25.661904790709276,83.94128786296878,1
0.18657392797952912,2.7032906253080733,-0.1953254814617827,35.78787345924677,127.0213711752398,40.78032275317182,27.16752119570076,138.12398541102831,1
-0.8231070295886772,0.29460777695707335,0.2311053010431654,41.58231558813884,67.55512299441448,42.88369130455268,9.042724061764444,90.17646362752429,1
-0.5634610166897204,-1.2859986724679808,0.5831402709505351,12.988302380221114,24.864137037893776,56.83143340235782,15.203070342936279,63.37770216665992,1
0.24738799394779692,1.9699469109381673,-0.10307933015535586,49.77956145657311,44.64365959709361,32.97643983521776,19.880938106059332,74.55539326725898,1
-1.208573386507618,-0.269684476709503,0.2846034924491072,54.505660631689686,75.5970918568487,64.4659387283598,12.705819514957703,113.32098037979723,1
-1.0957141294611585,-0.07849613326523323,0.3464156144689363,45.31626969831353,45.18628741324741,45.28598367842976,11.51848459818525,78.39760957635059,1
2.071332641161801,-0.10582510000913602,-0.3274366681719422,11.327414678795378,49.82774972378484,39.25759865515574,20.99722037270126,64.43814101920395,1
-0.8690495061715471,-0.2849720993123406,-0.43233617778215366,63.99272335135252,39.436362005225085,43.656883464596085,10.116178686553408,86.92651358458605,1
1.5086109898911206,-1.1659969613808403,0.45606186403157223,81.08379967405662,44.13472701681785,20.96202989987905,19.604714883398767,94.66711887426911,1
0.11450284860496741,-0.21663933424550794,0.09650061488086757,34.034463721724144,71.60546207876546,27.211661914105353,2.633550306209747,83.82220150095347,1
1.8977836085455597,2.0516070538128144,0.8197196657637693,56.662917400989755,94.97022440808573,24.526540998513862,29.124928254947804,113.27656838845945,1
-2.0625001106319085,1.2223159368179126,0.0214324786193113,55.96740624236832,35.91710363836182,36.65155594757156,23.975867673340737,75.93237418022092,1
0.18195521553706706,-1.3528737991196145,0.5587065863732882,57.35426984732932,48.11126105116715,58.73302589140326,14.749672086057954,95.151321798565,1
0.6098793211414558,-0.2916862201063285,-0.6413115991499658,17.843245505092654,68.73375661206296,97.94812401015643,9.318337859082847,120.98159242327033,1
-1.328858686920273,0.6367199050863411,0.24246025465868015,32.653587067532996,56.87130789045478,18.742189582379293,14.933400893385883,68.20463385936259,1
0.32690058616092693,-0.5896283729915812,0.0491166516409412,12.832197790863809,45.921432642746474,39.84057147045761,6.759719350220647,62.13464742958466,1
1.537760043577771,-0.013317349410074638,-0.16486966401977998,46.120707525406104,72.9542643314251,27.282185127607995,15.466303079707231,90.5194010813183,1
0.5433679572612163,1.8382740252067475,0.7193128455821722,91.05969691288792,81.06534572212965,55.95571356450873,20.47415712196125,134.14358187937563,1
0.7033494311761114,-1.2746755371364444,-0.34070387956875064,40.68637061957292,43.110786061967715,42.84107561672259,14.95184697909606,73.13876119453856,1
-1.4689653101452869,0.17715069590571386,0.8963007079168162,46.93753278401573,55.7940007920039,52.908694780251324,17.299122551396366,90.08569526611024,1
0.7961759201562341,-2.061223810284675,-0.011607799861452939,28.479844705481984,23.810421962707835,28.881256756677946,22.09677449977422,47.033655400529156,1
2.7425870837406117,-0.43897538240250683,-0.021856212828624988,32.6728434783377,99.74742186421841,49.371179878819646,27.775818605930354,115.99386307966934,1
0.8762441340189401,1.3947620845315274,0.7748987059895933,45.8475853827691,60.16968683045121,58.40668760053372,18.20338721060913,95.57056793370654,1
0.36448784075446544,0.1770524062777925,0.16698168852844192,49.62290768845287,47.704006394891046,63.28944541910585,4.38271405558723,93.50753496397229,1
0.5827135475475577,0.5348107727286314,0.5241760609189114,49.7551488598579,37.61352661075405,47.165186655514006,9.488615199082119,78.1978711629287,1
0.1489236435629947,1.380435244725508,0.31922066644985425,26.531342823302595,18.670094703856407,53.93125077706077,14.246689265865033,62.93698752432305,1
-0.24959967261680155,0.3337026989434862,-0.05329246466457571,63.76226009277912,59.4860511354765,14.432664182128608,4.2011614422991,88.38844883369,1
-2.475596453067563,0.09752857847674845,-0.0429796145316462,46.26503199286024,26.849537687498554,32.27492880522181,24.77889599906679,62.474169772114,1
-0.039560636402757816,-1.3406383425401884,0.022842908086701086,62.576041345309804,32.20929278673331,59.58219879008001,13.414164185260864,92.21300290594621,1
0.12953885476080604,0.6933029592932897,0.7259123678607646,62.51291130973799,57.56493006599936,16.86712521169388,10.121255228828073,86.63766598212077,1
-2.132143001890093,-1.6207306749211452,-0.20897014487070104,76.49884466402047,38.23150717570047,69.55649559849105,26.86348864646312,110.23532762140489,1
1.6692299205366388,-0.8446148637982133,0.4119441115271104,77.59995477441913,63.50801964832471,58.10356025427457,19.155679958658446,115.89238652675165,1
0.8585728956097338,0.4119288345043644,0.328750657109953,72.09410616092147,17.586614723667623,53.785064226274294,10.074273057258438,91.64978065661363,1
-0.030512715197562955,1.0221629957482319,0.49529903641998463,45.24439514405213,29.246375376795136,53.152394697792786,11.362523272338292,75.68079562703795,1
0.3695821210072639,-0.31303167684609906,0.07991257978686712,68.84976734203008,29.300767799594304,111.20798249759704,4.908826695713558,134.03746053951954,1
0.00010457113576364127,-1.6407211619707762,-0.14983066752761576,43.72825082187788,36.13419937070708,27.40761673216089,16.475482303124323,63.00014078587521,1
-2.210913539923798,1.4100989714929806,-0.014735373540734786,46.13147247554881,41.193630523865366,33.01295842948127,26.223529361352803,70.10622920087565,1
-1.1973203144026807,1.1257938927441813,0.13683691280122745,14.98047068030089,51.44076433372211,36.75914368817805,16.491549851140135,64.97539058542866,1
0.20355925138948558,-1.5754270484032775,-0.4049534400410734,35.27800215659316,32.1758044116221,65.34313060077648,16.393273139516737,80.92925640586155,1
-0.2162930554749563,-0.7500451408799369,1.002678789726339,51.394769807072,8.642206937217992,32.86925556462406,12.70714426836877,61.61572904413441,1
1.74097026556402,-1.4062907884191493,0.1797312795390191,14.443817252139269,38.658844006787625,49.5624017760134,22.452025699289003,64.49466448134537,1
0.161637737152977,0.8819679647776436,0.41435155651278577,26.658668805908686,13.210342581881143,79.32492108599158,9.87765894000457,84.7209589117863,1
-1.730901540082621,0.03077283510616699,-0.3624150442353266,77.13078487552616,1.3676360714330684,52.260698704457695,17.687034158187615,93.17837213118014,1
-0.35306641757717194,0.5087780925395664,-0.43617914958196274,16.685397073486506,39.9262643490784,97.0073469977265,7.5747164514523035,106.22115811790849,1
0.11651129054853528,-2.348242647101702,0.4994673313661022,33.724991927351475,44.42558120025383,70.37525136604492,24.035985574955042,89.79801417801106,1
-0.04478263887323323,-0.0023947253218309303,0.6770789078483667,50.4641929667669,41.20667396900704,43.37411070776369,6.785625003689449,78.26837312136026,1
0.16199830145946958,-0.44086863691092065,0.5064115755247858,34.920382520198785,61.37125098112557,47.866403456813714,6.906962346161604,85.30566301386901,1
1.0155617234887493,-0.5434384178725034,-0.02240683675238775,45.11730967044066,9.280625564500017,47.49928620839704,11.520386254672438,66.16557891437289,1
-3.4054054746195357,-0.41837518658633155,0.21648003172529795,55.78355723859947,30.35510123747979,49.46096248610207,34.37831852702462,80.49611319424899,1
-1.3200795161846504,-0.8075235585133932,0.19714796691333974,14.608739968434286,50.60265881988795,42.35311744357529,15.599908805702992,67.58573015287025,1
-1.0596010431241754,-0.6543971183894278,0.06656686168054526,25.73987657700868,69.3440395936812,40.1960355444979,12.471652281154347,84.18348024918075,1
-0.3486072788907544,0.053050583264071915,0.0014080215626333104,37.526019447222524,53.72764607141215,47.18308837047316,3.5262356955398664,80.75336473549652,1
0.44610322406974506,0.6233340918010974,-0.07595756110436608,2.184265539219467,24.38784963618155,56.98870209000716,7.702746442768603,62.026207297612586,1
-1.533385406278072,1.3742144346130378,-0.024992870374073883,60.91304895689438,30.05458990776937,55.56451269291105,20.59213626619379,87.7558714762145,1
0.3598417190960352,1.1591836000710045,0.6490971021494591,41.27043221150943,39.19901787098163,50.157856303399335,13.764155366365165,75.86581658380004,1
-2.8542057621798755,0.43422436382029245,0.2201789007922073,15.807660521030307,42.15982736583264,45.862633557512595,28.954308970082515,64.27063350781313,1
0.09780668281248256,-0.3742309521852029,0.8026936188580567,66.01259170364541,-3.1659345960806107,78.87206874488199,8.910286182450417,102.90038208576412,1
-1.4887676875744111,-0.4500977888502391,0.7841837567618468,73.44357818331535,36.60044312838084,29.33006450331391,17.41827032590394,87.1424368337904,1
0.21879697694355962,0.6121059297870587,-0.23140436928644492,25.882238536440415,13.133259939465525,43.63294308443765,6.899954844236139,52.4042604232189,1
0.06504097964033524,2.9799718930793078,0.34509324435014915,63.593892649051824,14.14299472294077,48.46053774629574,30.00591968240827,81.19501955571175,1
-0.43217097703535245,-0.16872776124156283,0.5498885218235474,78.71862776807149,83.10700933261845,39.56652711375184,7.194568765663213,121.1152650401401,1
-2.3440856772180205,0.9872015924463896,0.7139466097815004,47.61541389154861,56.64088896395635,16.73096020681664,26.41784322742084,75.86397677509922,1
1.0129758227724577,1.785366866723693,0.24510240847844902,50.66599442714207,20.70539818137908,66.81431105940007,20.673001854975613,86.37076280479938,1
-1.6573940607762354,0.2802953989915444,0.5568001221575609,57.06132901050601,51.60726699595178,42.97610715284122,17.707475707810087,88.12633579838186,1
-1.1328837441823276,0.4403460739677674,0.26352772911745737,56.48870699683694,38.93389993924278,62.653229145848584,12.436949411753673,92.90990100659711,1
2.1694059086723065,-0.6768813173568468,-0.20986279096638766,77.83303400497482,32.364294804766615,31.8778934182928,22.82221002751762,90.12008016761551,1
0.925667589545243,0.4749811155736628,1.2692023400846861,37.77195070247949,39.48218053862431,55.539739763171546,16.411404956805328,77.91165209977186,1
0.3109218462613923,0.40555727775738065,0.30642602571425404,86.44139606986545,39.11672027742791,56.47207035846381,5.95857373252696,110.41434458593311,1
1.0220252210511942,0.005045739718332764,-0.20151889788402927,55.68311661322123,45.16759040937903,43.676883191699645,10.417153537115798,83.9546950711656,1
-0.3191845657572093,1.0940840011967712,0.35686352189647064,43.67029086883418,36.02277361561603,37.43649707902023,11.94257159054409,67.86918179172336,1
-0.09070520436849643,-0.5339699611302797,1.0273873051980458,47.840323441413624,60.180885458956105,58.11364994478724,11.61411222767847,96.37236030889943,1
0.3899997472702063,1.7778430372910299,0.38014075352713694,36.701130569953925,25.232046317653207,51.18109602189205,18.59390400267571,67.84639810993018,1
-0.38282679967170713,-0.42672404061330504,-0.3070684752194723,47.496850134908335,30.56262064464631,18.82648092800746,6.503389991826099,59.53537551354766,1
2.203909944854595,0.6452535549427973,-0.4566712623452332,30.66558753232463,13.282220250570354,37.448772843055444,23.413927131191148,50.19169474064501,1
0.5139159794268083,-1.4916284128159598,0.262405500778823,27.940821162693474,65.01594901637777,34.29073009021931,15.993503689526758,78.63597957593029,1
-0.5016919290628687,2.046267833532762,0.28888961235875016,80.01026054746197,31.775362383622564,4.760038612722937,21.265850668069866,86.22049301110437,1
-2.1670950936535016,0.20542438294229312,0.1835848894857932,45.306191602997714,43.900467459273955,33.499306302796306,21.84537418698021,71.42902465719996,1
0.8406222404154698,-0.2692733334906386,0.5467293688940809,28.57179375596273,35.65103257198079,50.84378626166898,10.382999961579527,68.35520553186849,1
1.193585556281992,0.1610000362750307,-0.20249059527005614,32.45996218519167,39.22899548794052,68.74831722916113,12.212984618914309,85.55053684167216,1
-0.23480728360961142,1.335593854568892,0.3911193058684097,45.95994478258984,59.39801727187363,32.25439975848701,14.113538593213615,81.73608312140233,1
2.547395598073026,0.8797385536937146,0.0008349181877528866,69.56087407106246,46.467487108574986,54.10488903211902,26.950259651857383,99.62570740975295,1
-0.2973673677135705,1.527905274081836,-0.34595584768760196,84.48039239076863,27.597888608378163,56.02914737014192,15.94555526313598,105.06115128421051,1
-2.8428349508610276,-0.7881858128874816,0.22143305385944173,67.70822618944571,43.121848367015595,39.90861617024228,29.583745589116397,89.64705987890932,1
-0.034236639933270176,1.4640848546914895,0.8592387213079429,71.37748569642648,15.998692012146577,110.55330591998253,16.979422220575792,132.5622007220774,1
-0.7183212468071711,-0.5232970722208111,0.7085784725061681,62.729259268660016,16.18949604530748,51.958128171853694,11.366216129867741,83.04641373183175,1
0.01374263709022641,0.1709853258738681,0.13550347587315087,32.51290365580446,11.739429347171672,49.159144731601586,2.1860016860032867,60.09596173014798,1
2.594838782019579,-2.6445781480748,0.536734559708061,25.00476724957646,10.30098046383496,43.225363447988585,37.43670107465747,50.98804398025589,1
-0.4225952023571149,-2.0439774352698,-0.19625912625438047,59.45857946953783,57.61048426150448,79.30346677499188,20.964131524071043,114.64436493745622,1
-0.42058618017687127,-1.267780920849959,0.478790802427111,20.796943815959544,21.39694015727015,47.44663051353041,14.189439138724753,56.049305680493966,1
0.4491005732700562,0.3868595155645635,0.23792653785684761,51.40570456364639,25.69105731399049,33.76178733113611,6.387179714951568,66.65159541517744,1
0.7551988858038509,1.3604501426794184,0.46773146568534973,36.53516989249523,28.342515127643235,24.34460346360496,16.247838846529692,52.256832286643075,1
2.3710080655769037,-0.47425975188992636,-0.010872542553886921,31.229937373589827,23.064002067161685,38.52375314100105,24.17999125615022,54.69311415325671,1
0.587795835859494,-1.1963529223333718,-0.36586860910225233,60.98520626627824,44.49327651076385,25.68020891206589,13.82253268600142,79.73907553872907,1
-1.0375860236684216,-0.7732039232575895,-0.26827675278834,53.66214633452239,28.30463717065934,60.289073462873304,13.215148427239214,85.53099329250246,1
-1.1989419905043375,-2.8678542696063816,0.007309790536087685,32.45054011770487,53.64990811829364,47.842533015146564,31.08392420742873,78.86861327763732,1
2.595962831873541,-1.6263717882287232,-0.37265224260242696,51.975883803239164,45.84754418708487,42.75502298322051,30.85932259776907,81.43391059878086,1
-0.7217158316745925,-1.0369398712732998,0.6396786754954598,33.76170853629668,12.352989232328774,88.57777598854727,14.160885728688237,95.59535399453857,1
0.3125732804730653,1.3058001832617445,0.20892596525314594,42.09198956163643,9.831002641711102,75.83704993371683,13.588473914421215,87.29056272500081,1
-0.877901593994907,-0.6599602270984886,0.13268456551511437,-15.666452133719673,42.99513445147466,24.56748359934734,11.06283826157023,51.93823793086086,1
-0.859608269130154,2.7349292159997716,-0.010866585137073725,93.29571901135638,42.37581593291023,86.70175710070887,28.668593051558364,134.22740273944132,1
0.4924781186554182,-0.77626437248195,0.7016139936461179,99.02552822042928,85.83874998032796,59.12784414948211,11.564528824899138,143.77220938444862,1
-1.2322586018184225,-1.1208115230483398,-0.06881813905759476,43.64901179720943,15.238966212817363,70.43645160675258,16.671579613872176,84.25411584640074,1
0.10863826811356223,-0.7478531246629795,-0.16393363670199762,31.312440781019884,20.27826584130695,28.796053267501534,7.732792552559772,47.12631639519876,1
0.3856287017021711,0.01850528183862669,0.07309754116318734,73.48606339947743,58.97554602135687,7.790038033287416,3.9293153545692023,94.54629149273525,1
0.9584643133370534,-0.8436298925345839,0.5413625180049855,57.52391406079016,27.822135945463216,51.51554842270996,13.868808930183159,82.0787650171077,1
0.3779521756552864,-0.09131037700804312,0.04178599877996875,29.231679907275286,41.46498029741346,57.4404377404859,3.910645748798464,76.63706406879719,1
1.562891830050075,-1.2363927393501506,0.29749990181297287,83.4245100702573,49.45843962877941,38.340289259176494,20.14895548144809,104.28693068382732,1
0.5790510457602309,1.6298652166379444,0.3920092172333989,62.86091494672043,56.41628884916341,54.900638304057566,17.735365697944356,100.73913024065679,1
0.2781006340449337,1.0749825771428638,-0.2703739565095284,50.24029606526707,15.615840408066045,38.444373709932634,11.428165120331101,65.16066060380939,1
0.5255182560293562,0.2158339922161511,-0.22287710601187127,51.16871906833141,98.92264367171262,42.20689442077406,6.102687555498188,119.10226353323776,1
-0.46547026800544955,2.647301776719997,0.12058684369645428,63.165118350145306,72.76323078102476,21.973652700462075,26.906152557165413,98.82894992299097,1
-1.51785551506861,-1.2302998482063796,0.24369196048486155,15.451822962194179,35.348870258734266,42.63045862916577,19.68986757884824,57.49484728527273,1
-0.16795689175533177,0.3631269757720118,0.06093606782454025,44.684396326191745,34.599876597185244,58.760267409312085,4.047022638722898,81.52677941382505,1
-0.49383043695440076,-0.08763538675897067,0.6097982248607132,26.79211918411554,27.427473829106574,39.10394942156763,7.895583173637307,54.76497814650068,1
1.7440652998080466,0.2377251960885508,-0.3936631565116973,43.4559287570125,55.417181719450234,84.22621023408014,18.036761681756026,109.78859806125854,1
2.9341786389234694,-1.5041039217506929,-0.09438346650246099,36.30245302715153,50.130516556478426,24.77691867362685,32.98581684798728,66.66957690706774,1
-0.3544377540267389,2.5838380887507273,0.03423299832259469,28.041670698407803,27.24161815773185,76.09036915306446,26.082594365846138,85.54639287111544,1
1.0592297258544239,-1.4726213966324566,0.06156252707689011,69.75595733199924,28.990701479229504,62.98443173984114,18.15040312140052,98.35340867073295,1
-0.11245179474442839,1.3015548477445995,0.6121454063656995,75.0169762111691,11.080870171546518,59.605240189756344,14.42710097824001,96.45266746806085,1
0.8341342417525833,-0.6972791479339254,0.436629933208352,55.497012766066476,26.119822900437192,58.54065624504832,11.715903046633445,84.78898518031728,1
0.05551752981408801,-0.9618731618888363,-0.06875884171576913,27.184032137842284,32.52032056753411,79.59588664390368,9.659244038706031,90.17786881333794,1
-0.4547702710130618,0.29224772367076024,0.6115222101115523,78.18793710209573,25.30076693783419,26.75450629862241,8.162010443804592,86.42503065204494,1
0.30542573400751827,1.3577112940994491,0.36142935206967497,56.02955760301766,23.86637197568711,25.948192639625958,14.378094497035194,66.19836657905446,1
-1.9059062444609478,1.9216953827254828,0.6150227674764832,60.913719774629485,40.93463065610648,29.870688745967076,27.75544047782003,79.23624984748068,1
-1.5759766007115263,0.37451734357045546,1.2045613891429579,26.632825617778227,39.103584857526386,109.96776667278425,20.186464838696597,119.7134389118309,1
-0.0020592967385060796,-2.1173986544858314,-0.32690947623403116,44.23856320299752,7.829662541807579,64.27720183406771,21.424871314369835,78.42137951733359,1
1.3740693718414592,-0.5602843775025624,-0.5352223975475312,52.06792214615966,26.468690414485636,48.56923878831901,15.774816122994093,75.96466971792334,1
-0.6396000130125515,-0.20929673328542805,0.20664370697780374,54.150234128806524,56.04290919055446,61.99524539866476,7.039850288487221,99.58145399011786,1
2.0873558725616905,-0.8653098765652082,-0.411425235721208,56.889603177759945,58.279304623729075,31.242676575868128,22.96755634756846,87.22963451014054,1
-0.6668177692621352,1.0372794960550398,-0.4421416510582959,77.226727255009,50.56146909314791,28.302638343693214,13.099938663751383,96.54775448756327,1
-1.24987896723982,-0.7267002718686578,-0.5288354045030552,26.429128103992845,19.926888226101664,77.92728344300927,15.394666618470081,84.66546634561178,1
-0.8507823597788738,-0.02406993577676961,0.8822075557185316,67.24444763400702,13.936430457669488,23.7106834352177,12.2584671019099,72.65147170201905,1
-1.9763537443076153,1.1965688108586272,0.6226548755530531,42.038394807650235,39.691092232253766,59.697778865135525,23.927912854673195,83.1049591903141,1
0.11834591943713844,1.237473261246821,0.8010090948040423,63.87481570810004,32.64265378631056,24.057318341534287,14.78837854163551,75.65903444891826,1
1.6700793051883462,-1.4257179993895734,0.3413950856012591,55.25129815071283,35.327467969496624,9.879499782850878,22.22248254330395,66.31998534705902,1
0.7424311278829703,0.32016243143825424,0.39165738672413125,44.801052362525716,38.797172690090406,34.33307017074475,8.983893758997876,68.4917119722069,1
-2.155528878111613,1.0415423828096855,0.3692194966330558,43.925700022985176,27.243951332209384,35.92587740443458,24.222795702098374,62.94734842691578,1
-0.9541603283603768,-0.7951524940994102,-0.2273943295649411,51.339305805094604,46.61998364519162,31.905766023637916,12.626945799391013,76.33560834356456,1
-0.362833652634075,0.3101016079949132,0.3366189781439768,31.225524579473586,53.90005501657015,46.591776659179956,5.840578765940157,77.78845009583044,1
2.22441951825344,0.7271518801484987,-0.5056069652780621,68.75556885537415,26.696201953039015,24.87694693707293,23.942494551170004,77.83879454522328,1
-0.5846717981197176,2.4127214642046693,0.2438801940626048,31.043166663653203,40.11721940835585,71.82413968463163,24.94502660733494,87.93052104362279,1
-1.7053582152400137,-0.0011847282882449868,-0.3210741966097768,14.701768079697075,81.03113780052402,28.84080755248287,17.353203409158596,87.25811972645333,1
-0.17487324120816775,0.8148076221988219,0.06938713232964991,34.23112774001547,24.157489433615385,35.962067891852534,8.362455894155019,55.21435256476984,1
-1.6818566603558447,-2.207233592462302,-0.285030193379018,59.31819491881488,-35.90869688773769,78.5417027233924,27.89581360852383,104.7706152854496,1
1.5921036851358137,0.6503384848143489,0.4558135896073672,79.20464536826015,63.24735777253974,48.72607138704176,17.791852960061284,112.46258998411244,1
-0.6147624665967985,0.3939114570250217,0.4662601408162921,91.28017628357284,50.07933018988145,35.97383080575579,8.663126717448982,110.1550107687728,1
0.6081000156160313,2.1933854771812795,-0.2643686678789207,54.24124963591246,19.71367895096662,32.25353992268802,22.914223253381387,66.11378931351301,1
-2.516164144774842,1.8580574766513358,0.3383103290393209,51.77258452024936,49.10488023050407,48.22368531869562,31.460949554527332,86.1232465486241,1
2.075084440869225,0.35850765360562337,-0.19940133960622164,75.49411049314189,50.25744400900122,55.55997773118191,21.152456284479374,106.35827435116667,1
0.49952479065937216,-0.1971819168544016,0.49605300321523726,45.23863759442258,47.53690667046931,9.962981340308978,7.310774971345527,66.37433859846558,1
0.7861095294907625,0.4713590485954638,-0.35558826893117274,67.64826284768438,85.07262654243044,91.6325093733306,9.831533766663657,142.1624283247538,1
0.13475261357174279,-0.4876492413740136,-0.6101827638622124,49.91661127962813,25.226517806254247,67.66580772306895,7.926430815894344,87.78785119301018,1
-0.13453533003509716,-1.7147279542529772,0.2927797908987476,33.88344332274063,67.4112923494572,25.298327101076055,17.447382950124545,79.57622397263144,1
-1.60016130458421,-0.884679175635166,-0.02441637954258785,54.7782649121855,70.97020816708395,31.55909714739868,18.28597715212705,95.0442284772082,1
0.07794118815207843,0.8285292365904643,-0.38644578804373114,47.502099793550705,33.54996719105586,31.89911295572807,9.175379402468737,66.32950467687569,1
0.4214374597627178,0.30689063418957796,-0.21653488685099537,41.90937350415702,84.80740835922268,28.879697166456186,5.645163868906793,98.90767921928564,1
-0.534906076761732,1.1054090605473457,-0.546430700551608,10.369148055809497,42.29588998960363,70.89308671089891,13.441131695665042,83.20030820144227,1
1.3045279376188323,1.0656377221993907,-0.1458301768940256,61.826983857363146,40.25753817050822,45.646733822203075,16.907522986810612,86.75753351198746,1
1.1742974710730065,-1.377215858171678,-0.35812463907635156,30.130441572855553,8.498228221291573,24.30663937141757,18.44980034494026,39.634279478862304,1
1.7534410781871899,0.029567347170127746,0.13332235763450678,36.4600221301898,53.50728390645074,50.63787696427098,17.587508901883055,82.19827995906056,1
0.4578402735258931,-0.34834387017043084,0.7558283551517271,41.2285432855841,-0.6576453246729699,47.03249151503374,9.498619217543906,62.54822568975132,1
-1.1213600986432744,-1.7624571155163011,0.36391246761345925,40.00642169869859,70.0047226506492,44.259650260467374,21.204093564563923,91.9787563065913,1
-0.20747415479076353,-1.7358925858039114,-0.5135287244288347,50.07119137132282,40.1179865625257,68.35917212135175,18.221087632654196,93.75261843965329,1
0.9677604398982445,2.211619185200495,-0.17618753221779593,57.151908330328816,51.662579998461396,65.30471495281641,24.205085696786828,100.99538896882538,1
-0.880708291154496,-0.41856945651616817,0.14958370754504163,22.19542307633859,22.996079723580092,36.63871151499528,9.865205368361236,48.619457727024916,1
-0.8971437029875113,1.069056882643401,0.038791152076274316,39.928520422598694,12.962640396873539,41.32153863420477,13.96156938032675,58.90489236298303,1
-2.299039040017372,0.5795046277457819,0.4569782218964249,42.3099324583358,30.041439955196974,35.39519994853798,24.145880013763,62.81272704323246,1
-0.8537921754317801,-0.5591367386909191,-0.09746304614365292,68.43944588372123,36.83945111397243,56.28063504158216,10.252287631285267,95.96151724484841,1
-0.10392549941091841,-0.18205253861236523,0.3034575479907293,58.48000092718247,59.55172580129028,63.35203172949639,3.688226127497626,104.7845335849258,1
-0.244191758923767,2.4419369762082535,0.6590891719566092,52.37123955862993,53.0781770139462,1.8388259313792972,25.410793666254975,74.58834284817651,1
-0.6425647182058126,1.425379124425045,0.10453034253699928,60.1868491008877,44.473949606928684,53.88148979334976,15.670104204951947,92.21498761418076,1
1.524930930459806,-0.031140308678218417,1.565635929912919,70.34367061166697,8.069199522547656,26.848007567261703,21.857721579642913,75.72423315154221,1
-0.779800259271832,-0.12410494710969032,0.6500283443786056,64.88573565995424,53.92389840473367,23.981472815562736,10.22754775473137,87.7100709707903,1
0.055745812046758304,1.0106746689363741,0.08576719844488012,45.118268639805855,55.08679591704913,41.30147428327142,10.158380256317862,82.31661452849018,1
1.6185963860545776,0.4504933790858434,-0.019404300676683833,29.42769574009779,11.515108260690965,7.065614141366119,16.802306604850035,32.380702556026726,1
0.8668661173657954,0.14699845379458015,0.5015731113021918,63.70102519642321,36.51732835138502,14.700448786964738,10.122455220134132,74.88283565368225,1
-1.0235825183748888,1.8982046046133245,-0.25919819238762765,42.24801867836803,18.893951828535968,-3.801211747984148,21.721154655853177,46.43625424923703,1
-0.48598978079489175,0.4190351522873472,0.26524109575031335,38.450688253900736,52.94234644334975,38.53961302795633,6.943553591385135,75.93845696661836,1
-0.8939568658982873,-0.22676444522670947,-0.29773125696111064,56.00874202353452,69.14931829537258,57.81498785109166,9.69136158172477,106.11870817153527,1
-0.46548607926534774,-1.7668563294079465,0.21228440490348566,33.72945398646095,-4.6746688993842085,62.59193144876815,18.394355784653005,71.25502423009165,1
-1.2680634425504864,0.6035989984717205,0.16378480409509294,70.36018037267502,63.23807251162874,49.09664058717619,14.139102189819276,106.5837178653838,1
0.6956184687802067,-0.04319759254260051,-0.270730889100804,63.112394718596704,60.391227026287474,27.583435437138455,7.476939884892133,91.60305987995888,1
1.5095864641375911,-0.621467017453551,0.6779562615569357,50.97678143801097,48.209613577373545,28.717526432896868,17.676813171706893,75.8122378741226,1
-1.6299838258452293,-0.2274031839541436,0.164844117569848,43.96261771776194,56.58327372612048,36.583852728031275,16.54005158301181,80.45344556070569,1
-2.373174814093334,2.4036552300581513,-0.09069305188970189,83.55427013896025,8.983337690167833,77.51270446090611,33.790150033543654,114.32513182740577,1
-1.2124956555780313,0.5165405074185897,0.5230744461397119,30.6405425644422,20.437595582921414,-0.3968080928461717,14.179445288177604,36.833349270966266,1
-0.7155613030213835,-1.7649725047000382,0.8375874844658413,20.308495118391136,42.15833693481771,47.15933147505932,20.805549055150173,66.43615651328614,1
-0.1629372077336356,-0.9298813863381525,-0.1111348143036216,62.432766792703156,33.83117143059328,46.497228421525904,9.505676584402075,84.87868272211702,1
0.2547655574958936,-0.9590697460725327,-0.5453299955574611,61.528354160522596,60.79905755602279,19.45807545216993,11.323007865282644,88.66160649179332,1
-0.5150897396131218,1.1656342457395703,0.3081058901191972,61.96782653210817,57.70369602280697,92.46718078680202,13.110872870338241,125.37905559727703,1
-0.11420560817851776,-0.6584132039281078,0.8184863161425984,77.11565073765973,43.1675505762352,67.70563899151574,10.566317796465249,111.32975596260867,1
1.6173642968543143,-0.9341970478686618,1.0355979656750203,53.32046877337391,42.40415127928809,95.39489379631698,21.356625528148903,117.22359062210852,1
-0.37457024142555523,-0.03517080898540488,-0.2338263447387166,54.16066094600748,57.26316418883275,13.081284269261491,4.429611845976527,79.8972287702072,1
-2.393093245627587,1.0668590478126063,0.13768001189267443,91.49531182170496,14.705206395192615,46.29978806095055,26.237452802897554,103.59201491893656,1
2.798136680910518,0.7684786717182709,-0.010961909765860062,16.324314619818317,-13.396035245913424,71.8846068093962,29.01766447770827,74.92218432652682,1
-0.8142221174039002,0.6882573257622938,0.6775564979596844,84.14882064290241,35.50274608471058,48.45204190758525,12.632254790268231,103.38795558555739,1
1.7619130104438836,-0.4996628825996572,0.16281466044570597,41.41541341814735,33.64641563499959,52.82795515405502,18.386160736475894,75.08735312579644,1
1.1165423743646712,0.3591093883621528,0.34747100502448064,79.51901116039224,5.358668868541699,40.29026514479241,12.232589774428224,89.30450119342774,1
-0.8632695026512885,-1.2976248221383448,0.3547357239581566,59.07217700895264,40.847601553094215,1.6289902023333909,15.984060332373286,71.83802793991966,1
-0.576356472058522,0.7415498310789764,-0.23187815164046482,32.676664006732196,44.23589875940762,45.62623025579748,9.673936179576557,71.45860337997432,1
0.38564873464601995,1.8958785890479692,0.6117145859324126,80.52493599872301,53.82774515381245,27.5758211882915,20.291070217184348,100.70808001422152,1
1.8148683252840034,2.0034634692502693,0.35449551668602897,62.62782705021202,24.393942497983645,55.30060352192227,27.264042220642892,87.0371524207625,1
-1.5699770809203555,1.6365695129361155,-0.9009327348244884,-3.91453358624009,61.714415290357465,30.27416155372623,24.402597398566993,68.85141600293798,1
-1.4320010813684134,1.0183590308048063,0.22659951062689082,34.79504393107714,7.103412429275522,62.70352540240522,17.71730665445049,72.06167947110343,1
1.0020079900958963,-3.24480730689285,0.8773207892608228,44.162768682735496,-0.45385954515879234,39.19737055498217,35.07490019707894,59.050740762806,1
2.7792906525591583,2.4192147793230427,0.09471057976693285,26.808158400173127,61.139504938288646,79.07550594537506,36.85922784570716,103.48744881107487,1
0.9134193668776676,-0.5598383460020614,0.1934830737826493,60.90047438475647,57.807547685030315,44.04390177412592,10.886641416350155,94.8179604987066,1
-0.3525440655800553,-0.030894227193050468,0.33610349667413264,26.4980532043109,54.92884204621934,30.07496443679119,4.880648849550117,67.99873526788024,1
-0.3077841955896027,1.587926653147164,-0.2137759514111292,60.66417684700638,52.795836348135786,66.87511031138487,16.315459920675316,104.59360911348215,1
0.26743099405094384,-0.8897847149262534,0.10229157939836747,69.90502803279796,31.05547111023197,69.42048716764444,9.347190715457145,103.29743108489102,1
-0.27646594022561416,-0.7075982371628005,-0.2949429835244991,27.375714226327013,62.05734778702505,95.66106546618926,8.14935607806573,117.2671462511468,1
0.03292586789626855,-1.9701086869288347,0.16307263058977628,53.279132966458114,68.84059509804764,48.179362369263046,19.771203893381532,99.49343948934334,1
-0.013565783984897531,-0.7883348981439068,0.6991349057562801,57.86682965607929,68.04580815322441,60.73654754637313,10.537768068113529,108.01726801546114,1
-0.3772757690812603,1.6847007480214498,0.6467852806548819,70.84736515941762,61.94446116338611,45.364241911256556,18.436064698280116,104.47190944477427,1
-2.2730771526882316,-1.8408146714225062,0.319935550763852,69.26500942759128,-1.2817202734364201,44.41245620840764,29.42420288340902,82.2906471254624,1
-0.4739387930266356,-1.7722959786645889,0.23568971780559375,61.93790773022107,13.677404719338927,43.260588690843036,18.49648793313341,76.7779548290541,1
-1.131281931164758,-1.5718414480795293,-0.5897112151032491,71.15890863330254,26.40950816090617,19.828259758864007,20.244119301414834,78.44878765314768,1
0.3066374576019479,-1.3011305711898695,0.03654515145317727,74.3395361716726,53.67249846654241,11.852945529926814,13.372744078102288,92.45321004484283,1
-0.8427773565961407,-1.7860805378494489,0.0937556345231923,55.755097468878866,57.02685715487962,-11.012596399332665,19.77156412497656,80.5106863104633,1
-0.9865006976882695,0.5333941395080816,0.3376001255469283,43.937122058263895,21.4271460581428,50.28274729501327,11.71181787499409,70.12808252400696,1
-0.44078525276399566,-0.5583445387091158,0.9155852669279814,50.005316994441166,44.280185260632365,45.799352912548095,11.594553221129729,80.98671040138991,1
-2.1238537992038955,-0.022916940549496174,0.38070893290268654,80.92499773401579,19.720244285908723,32.976912528645734,21.578274810903842,89.58359254276606,1
-0.47713833422730323,-0.6800502909072885,-0.41252895135240547,49.18527946857579,31.986296809155622,60.94162866441793,9.275287186153369,84.5943083442208,1
1.064493251852437,1.0160403471765778,0.5093730812459992,50.55540951582998,34.11231799076229,62.422029432560365,15.572234284867793,87.26975093636736,1
-2.3838435531017934,0.30935504922604046,0.206541481555326,59.9411055089043,33.85618405793197,82.98460253084642,24.126893740698776,107.82217576081798,1
0.5285898675357974,0.2860290099725268,0.1990418384269569,52.15689147072019,47.01078740068619,37.69073415962963,6.33117284594062,79.69282841895418,1
1.3644156063526334,0.9181527187533359,0.08003078738685072,57.97161816078933,35.537073610668656,29.57813252488572,16.465233945324087,74.15158822742872,1
2.337619684545565,-0.4328600836661139,0.19600631437671345,48.90469371919512,14.18695764417269,-16.90432580851453,23.854249342374793,53.65347207782776,1
-2.3693693949314008,-2.912142629771836,-0.7004295090764296,77.7998804540147,40.436746836359674,53.39273734154981,38.19042749558725,102.65834741603115,1
-1.0969945566931991,0.01048846883211079,0.7460503254447923,65.71680070706059,39.53582176088826,48.2335412233641,13.266869086145501,90.59941278190608,1
-1.8805261883560056,0.24483023565777312,0.11288471905002395,27.824300540547693,35.94543325912239,-2.00921314600852,18.997535495900543,45.50058032841821,1
-0.3686047138890934,-0.9774439714461516,0.4483486490514603,44.07807752574074,26.37706774732107,78.93806961762138,11.367861115988159,94.17985695608385,1
-1.778491368912262,-1.547371123485395,0.7409634946253485,47.79239142233441,53.72506130345381,24.204745132728416,24.711163152428245,75.87070961092847,1
-0.2953642066199092,0.6370401241779408,-0.28237856780595755,38.03638605777223,57.43834112300752,79.86614293644104,7.5683405705676225,105.47288980037902,1
0.2577054093740329,2.82944317236154,0.7377818918773991,36.201136442453944,48.41102320191319,24.889915396488732,29.353846193686728,65.37321573569493,1
-0.7563918742740232,0.019422415268694513,0.26236340731994445,63.15183493243053,70.90251255912855,13.26570747742717,8.00837346271495,95.87126544177355,1
1.0140028927126485,-1.4225834684316927,0.2994752044892536,55.26386257030197,36.63961229185892,4.668033441418743,17.72464665145301,66.47064187517046,1
-1.6320421764939246,-0.9028834463454551,-0.12800924764395277,41.20633349492572,27.910782193171602,32.88819745704902,18.695311045880043,59.654062851607584,1
0.7041301547479316,-0.5860796912719022,0.5444450401745728,63.648470682233494,20.24210681805115,63.55370724858675,10.656965239304323,92.19514311317921,1
0.19111294265151132,-2.3872201119669656,-0.39405453464547063,29.738881712853278,46.20474581014371,37.303708182891185,24.270605670446606,66.41420228464222,1
0.022995660109691486,2.09044654494126,-0.4982767032887854,56.91053009661594,17.25727413518067,36.66828820476374,21.491336000074707,69.86548007651719,1
-0.4352143097765844,0.5838325839912,0.803104890513658,18.167577503942308,90.03518214497265,20.70326946688454,10.840892245249488,94.15423656351628,1
-1.0761518849856533,-0.05930647739787978,-0.07583645103127024,25.060223487572753,45.94020794797403,29.310733680618455,10.804495847213502,59.9803019035944,1
0.13462851491268066,-0.6254090795690583,0.11516913110693683,38.4751632658935,31.853082157183014,25.933832597816,6.50019447859014,56.28073120048242,1
1.5824267144981554,0.4983485362787483,0.6538409114551158,73.717654142039,24.93245283951099,41.65780291336233,17.8323680644525,88.26829714211246,1
-0.4203312319768052,1.4115990312471054,-0.19527940253157638,56.83620186858907,28.441193198987296,34.44344835841343,14.857402917892465,72.2883562425362,1
-1.5448515220581653,0.2610370639931733,0.18695224637227703,56.78588792893318,38.98880541609537,17.393413904016857,15.778649233718475,71.04431618988217,1
2.3726870911502553,-0.3831905580052935,-0.08918438481631585,45.97210237836561,25.283088900692807,27.354535502073002,24.050847990768503,59.16873662654491,1
-1.0577351174620524,-0.26410973899664125,0.48899505696389267,59.545238702268676,41.94247195208124,36.23543055094653,11.948530029591325,81.34994058248442,1
-0.9802685605551313,-0.3286832075672036,-0.2639390029693237,40.84468041215795,37.33305978991543,48.04809000400629,10.670627437212561,73.28481578254672,1
-0.09466099555491557,-2.1502860809999147,0.6016269950701991,38.737065301405565,51.56490403885925,56.21677525494282,22.348704605454465,85.55597803056705,1
0.6928498476750067,1.3851089185846568,0.09067869385481493,38.400625230818,2.627942304320186,57.28961050261436,15.513833353769312,69.01893631760659,1
0.13357098027955933,-0.5812829109613188,-0.27463135502433716,59.20220064139251,14.622749669727764,51.72589284544131,6.566227307297626,79.96432554173953,1
-0.18260602658880137,-0.16408321220928007,-0.0750293733641636,35.55706465310276,33.568645946093675,98.45709761506505,2.5670541159641482,109.93161014094886,1
1.1785869802492759,0.7999287485972401,-0.06774761689586978,38.966796173615975,18.80253871151186,61.73638796238285,14.26023496454572,75.3878522354622,1
-1.3017127876005015,-0.8255206154171393,0.7541877427118389,43.242512965957204,-8.43595576471305,76.62740000073353,17.16024364377773,88.3902636501758,1
-1.1673406590585602,0.14834151394172576,0.06471367689437676,53.192760914688606,60.9182061198935,22.935635258775164,11.785063763200379,84.06272072278308,1
-1.338399528707156,-1.9055664333830564,-0.08434601554404753,52.01302950950537,20.026269561107796,67.19071401564534,23.301525659960372,87.29833194983206,1
-0.12144890515309617,-0.26916397204277986,0.7833644838720646,30.067996162626077,14.855462247892483,63.43352092857198,8.371732168439685,71.75361126263844,1
-0.6966359509088274,-0.09370673207400022,0.7410343014229155,29.561352355541484,1.0020276515915398,23.739059316608795,10.213786935412267,37.92651512781662,1
-0.5280999389580239,-0.33118226450205196,0.23778781657756196,32.506241453282655,53.37996992717061,44.245931993534754,6.671688568577672,76.57531861390622,1
-0.9417613258288057,-1.2608280338091498,0.2883785342316341,90.17796346348632,-5.5554423702610904,70.85211689934917,15.999262185086728,114.81703054630096,1
-2.6333582168320664,-1.0468378664962334,0.36568940607432593,54.064597106541335,45.236392237614425,21.578857405214478,28.573018319040674,73.72217393622167,1
0.6546293178749336,-0.45993871977466866,0.4726049928929268,53.67385057211717,65.42253415986934,81.09374423062062,9.29213995308231,117.20574032221522,1
-0.17211592927667957,-0.7640959854185867,-0.4824893979952887,83.0824389670416,59.983780728592265,24.058204177408392,9.19925316110733,105.25940719693371,1
-0.9647980468643522,0.7752542409181649,0.27801997447442395,20.6477695647015,16.03984438241602,48.65062760890897,12.68522571932257,55.23124625200731,1
0.7743362283095944,0.14966089412330663,0.13271142236445038,57.95137906525648,16.40200632646344,17.98724676533389,7.997545244189066,62.856417280142594,1
-1.6503334660766886,0.824978538901152,0.4237084279235447,33.447959577069284,58.83604552261144,67.68493332464405,18.930713063151156,95.71675115552961,1
-0.18403700930036204,-0.07758864588903394,0.5080278360100003,49.338589096318465,40.21548909306289,44.74084157856889,5.458771848356728,77.80311588984219,1
0.47674726482121366,1.6730586671558683,0.2360806758998077,79.92366318139749,62.791414813391334,58.64914841242444,17.55604552225013,117.34682066465814,1
0.6465736483836839,0.1001310257015962,0.7164965930988407,26.956453138214144,31.807706556673704,35.50919331432719,9.702840166747503,54.765713471317596,1
-1.8405037780319693,-0.6205183609042914,-0.15529328400606668,52.478153053489464,56.66194120067631,33.47319408454696,19.484899787339657,84.17236393707923,1
-0.8093993988395239,-0.23288693638697605,0.8211008768667956,116.48415778470219,17.76904957662869,56.390590630556574,11.762526777750242,130.6299998060595,1
-0.5544081749251939,-0.288942434976448,0.32886420914553804,72.65131522365532,31.2921934584187,-0.830004109960278,7.064048578619229,79.10817835084173,1
-1.0905092723517074,0.004076540304099776,0.09594262443997824,76.47101315731183,32.88409473447212,47.4095668621547,10.94729226087589,95.79585883465221,1
0.791183729911966,-2.3180513739343827,0.3533402678943595,72.7692648494531,29.898015201490942,62.37988292281339,24.747087124734797,100.40172813842567,1
-2.808721420226713,1.0667656306904663,0.6759780621858495,81.42137080731827,50.31853392224262,59.448049888131905,30.795862169809965,112.67415460401077,1
1.1232835553147371,1.1930340807316502,-0.5400876465236188,46.44868043629757,12.141634175206597,34.826415787090106,17.253379174396972,59.310862675340644,1
2.054852466939231,-0.3583479037062557,0.8485545731733468,57.69751999657311,44.1825984755847,43.761258186868474,22.518607294036443,84.83014523096996,1
-1.256626984793342,-0.8144698591271229,0.6312608500155372,99.81480893887232,2.4116268552592928,45.12428083921191,16.251039323993098,109.56738907562168,1
-0.6512617137648434,-1.668785743599504,0.06204707853855182,69.10875050283651,21.553789567550755,56.11294166875247,17.9243898579897,91.59283521928111,1
0.9317141368774121,0.10991437259919458,0.027436574937741404,75.36687385033723,63.866798248651136,52.21458904018997,9.385761385233538,111.73852022083736,1
-0.3042694923936363,0.37189161741712246,0.28298399709167643,66.88364924545411,51.0838212473218,19.076282964355986,5.576407819704245,86.29532954542464,1
0.5879198651687341,0.13735686302039024,0.008620380077011325,17.877120281628784,46.96578098833386,40.50532708034039,6.038137019242747,64.54500395300416,1
-2.404156214132394,1.5214038001184833,0.033437175694882165,50.13632858053423,26.74620347557156,48.27523023385975,28.45303967888988,74.56211302011322,1
-0.4974884423613029,1.473854055660185,-0.43136256031386017,46.93675408913908,55.915808451058446,42.5206831479613,16.142534454383487,84.48458447864375,1
1.6618500638944316,0.7975466363412639,-0.14370861884092617,55.505866314649445,39.92871599988098,94.31947834437425,18.48912772181088,116.49621260750828,1
-1.5571055274824583,1.5979530880120754,0.10085119356374128,62.59069010747154,32.32163551237315,92.93626928396932,22.334284538455634,116.61660584473678,1
-0.09665928115400695,-1.1385453034121606,0.1591770522887467,94.54278291895699,33.34574449342943,65.27179886600675,11.536748929097975,119.62727199550504,1
0.07206513536429246,0.31492376571149266,0.39009838448445383,56.47327444405074,43.03547091400489,57.84660341690359,5.065047991108886,91.5833609892963,1
0.6973152996923625,-1.0795290229631476,-0.18715770068595072,25.411768981317433,73.80786280371183,87.51921046365614,12.987145735421887,117.27306090741016,1
-1.77632509256715,-1.6783130920960694,-0.7233781908221188,54.86214796181713,42.26804834233012,17.629692877124683,25.485960206635035,71.46502123833457,1
-0.6190955195452188,0.028671478623047364,0.5260881770409118,47.01648116412452,16.983675503635332,48.456131710600765,8.129391650238201,69.6203377974019,1
-0.3302079465412476,0.8664168974014019,0.5885353607280959,63.38717112290127,59.426227101927815,71.52650715927953,10.982210155014375,112.5408866010053,1
-0.10370483938585427,-0.7593198251802026,0.6204096867835079,32.72640958351468,73.55980640977494,31.277572234795926,9.860169725103873,86.37331490787189,1
0.17119640042506798,-0.09952039314770716,0.543147519226236,30.271306373652248,35.26389175934851,21.626031768762267,5.781191432675352,51.25991905617958,1
-0.6197473105902545,0.389085358142478,0.3711006739185698,28.900001493851523,28.949827562008082,5.550733926205218,8.204814776017374,41.28090659535167,1
0.6802915005983705,0.14961257794117375,0.5127316251177245,65.4887994209476,35.30511735497414,39.869209384003426,8.649128098603057,84.40845939804322,1
-0.39370270874832575,-0.06629177592074437,-0.7329773288518855,52.380267126858804,17.90271827595051,74.65718835947271,8.346569277501628,92.94027910271696,1
-0.6071184684040388,0.015665787553238265,0.41902322874665265,41.17599380723366,35.30747844491458,36.01333836506407,7.37847354000947,65.10791841510562,1
