ax,ay,az,gx,gy,gz,amp10x,gvec,label
-1.5017789346836943,-1.388827063812052,1.0715153811561704,32.44279891768461,32.53914836703084,36.35336098439651,23.09182927767038,58.59093985358834,1
1.7728100281085215,1.2388278658170424,0.4918682209622337,54.096970500441856,17.726362025099093,42.02393949633216,22.179910332730152,70.758162912571,1
1.6269684858246394,-1.8644612038298485,1.1173801479650418,68.59370844886384,0.7632850318437931,20.594852373207026,27.15102287119133,71.62281331448634,1
-1.0618219744261554,0.39507522377275955,0.3061759545366239,51.75614732849965,59.48756976503269,28.375175218973542,11.735817197578394,83.8010758376433,1
-0.46221037855837044,-0.5793017984795881,0.5513433659329607,27.873938117765974,5.335661993437718,65.0180178423933,9.236928682885043,70.94200701456815,1
0.8239151550456622,0.8332984378602073,0.3462571104045862,55.43494474258932,36.50701114619271,92.34278562579304,12.219314447872733,113.7232826582725,1
-2.064148269544336,1.4576524511024995,-0.12982490605798175,46.38582346417596,40.010882026568886,48.909109032502755,25.30279283616922,78.38760262533198,1
-0.099936117821607,-1.0520708734238726,0.5198003360954749,35.55944850648645,40.51900916674023,80.30790550655703,11.777235413105629,96.7244755415605,1
-1.584729887264691,0.3791578702155295,0.1571465391667484,62.91138186096603,66.02903085617521,10.918245262612622,16.370169641480274,91.85250656937234,1
0.8770587996333669,0.5457585965242389,0.3446243641915351,26.49578508052274,38.644169622817856,37.49152293260232,10.889676469431262,60.00843911214668,1
-1.5220054017914724,0.20610939038569862,0.16781186038702597,22.861569785125045,35.46818076139029,33.513992183796496,15.45037975058911,53.88720526858275,1
-0.9434028362063795,0.7906895122852865,-0.1225802004122587,30.12747163855725,25.680642011169077,64.07397398556802,12.370225227267671,75.31689095907466,1
1.222044387742691,0.8029961366734264,0.19007072803445157,13.71500190128075,63.6494317768075,53.01221251404142,14.74558294127907,83.96217075741014,1
-1.5484098770150647,1.5310976132125498,0.2503240927616514,31.136749982231716,33.3156287409073,53.644338440325946,21.919158742615824,70.40698377688258,1
-0.1420511751618221,2.2224755448628684,-0.349195463940459,49.04432349482903,16.548302034937528,74.89603911031995,22.542212748341612,91.04179612529363,1
-1.5303680834629345,-0.7587130115093912,-0.14751884487037448,66.12176985605406,31.70747644505311,45.170430717029724,17.1447767973443,86.12676890823526,1
0.6490793938461193,-0.4964470130266748,-0.14619862636757913,27.246142332836456,60.555424445762014,59.50995704628463,8.3014320126742,89.16695962899159,1
0.7422101167165301,0.5817386875947669,0.6061371069454311,28.780346326189637,49.41905451336537,67.59725492579534,11.210254013255113,88.5434365560393,1
-0.8223785412623587,-0.361243657505148,-0.001835998298670427,77.88512403556764,63.12798096109616,42.72027111038535,8.982242571352959,108.97823677232579,1
0.7637112820444741,-1.9992465575126388,0.45675064071393534,83.50519959943549,30.933499787495776,24.49590421427526,21.883470629314587,92.35826488473845,1
0.771415742692207,0.5036925914477508,-0.18256831322906103,47.70509384764052,19.274614826564086,17.22341881615947,9.392122570260806,54.258021632210564,1
0.4066543121454464,1.611183105374745,0.18043810973670976,67.78636041417917,29.401605728202213,35.87825040412412,16.714773824604535,82.13826105816146,1
-0.1396142442160654,-2.1202443874644805,-0.24092036924205917,43.240088581663024,80.27801715978664,39.19816814902159,21.38450612962194,99.25100345032303,1
1.1247098292520703,0.3326881139077966,-0.12877052481207607,44.687493443471695,42.209273323237575,49.46967899748307,11.799302645547005,78.90401741895097,1
0.7471540471345394,0.542637473058599,0.4125897854044105,41.74888788577874,4.21820433660951,27.645232758752467,10.113975125226485,50.24959484225037,1
2.0571419266835678,-0.5996771935843358,-0.40666700843175546,99.46866616098276,44.12086222582298,63.30434734080446,21.810143738112778,125.88926254307914,1
-0.3007002473328141,-0.04014828091723647,0.4212683739849449,62.558028353401376,37.487990075330565,83.27456721449997,5.191334762144937,110.69557288399264,1
-0.477023518284732,0.9258858199617434,0.9383822106623954,42.850840792180804,36.5399104750109,25.12178840696289,14.019190996240184,61.66412139066649,1
0.17572181711718474,-0.9842810358113888,-0.01168075701304322,61.93115104136489,27.3238268724579,66.42336175131366,9.999118733935024,94.83734480999709,1
-0.5419564978695706,-0.029159375392593397,0.011598380267293817,78.77022487901765,65.17463340963683,53.132087003824324,5.42864289837857,115.21935530523298,1
-0.927720927153878,-0.8136388169974835,-0.3148066335934245,29.221246809437737,37.85232819749603,30.484769190312438,12.734902668488441,56.70979781004029,1
1.4917504084835187,1.7419675820504517,0.8285227483612363,51.52129073328682,38.83277882088536,23.99009711298661,24.384872939339868,68.83278920155857,1
0.9785317205369662,1.768578023483579,0.9242168463215126,51.40227652434023,57.35773320837896,21.02894839872488,22.22514191691608,79.83934031193238,1
-4.5707152748167275,-0.6990021046880966,0.2318739619624588,50.72354994993264,52.1100235024335,28.5274964482471,46.296660354757236,78.11626669620249,1
2.4628669296936105,0.6461549053658328,-0.1364316449689546,49.72489852822908,51.21605668655292,45.04591181815507,25.498712259358697,84.40843659073353,1
1.9081412816935805,-0.1421258258300733,0.44693073551574264,63.20574446218321,31.453689862329107,70.22754952378887,19.649300200311824,99.58016595231506,1
0.4321210824743177,0.38367521418572914,0.2805458290624327,78.08247042460823,43.904157091185205,42.72594087594236,6.423715919182361,99.24693053808672,1
-1.8156317702564897,0.3066388417775922,0.3403064444998477,74.26721457926999,43.423388596713735,54.3773813994936,18.72526256323138,101.77479769791013,1
0.29684786361581667,0.09159822607690701,0.6939289755252328,58.84006917850983,31.888894543900967,36.40936587110714,7.6029356976579106,76.18856383539462,1
0.13227415219409683,2.226456775690035,-0.4672729690767223,50.94966430868575,46.71552497896479,32.52411741647916,22.788045666499155,76.39389230134155,1
-2.6301149236108,-1.2746018980844525,0.6894788629791169,29.84940652518977,65.67869314671815,36.43781131418882,30.02914519678459,80.82321384809707,1
2.0952779137470583,1.0000355937158234,0.2826583558441694,50.877314724252216,32.02133914077285,16.374341881395267,23.388365634783703,62.30558872178176,1
-0.8174117346183402,-1.4785077734585397,0.16270018130914374,45.03404417156926,62.45853570668976,55.4412016819856,16.972385009382506,94.88340561453987,1
0.3414217368147202,0.30681364619560386,-0.1288675567114606,11.28379419066021,34.58619718750779,13.885418406625426,4.767706608362167,38.94013214612145,1
-1.2026122320828565,1.558991833832817,0.4293902681250063,57.55947449487494,4.590579865756467,39.26496607700383,20.152190255833695,69.82767423205723,1
-1.0941541617125468,0.49450321877326125,-0.3617238042769017,75.49992750433894,29.94720444173347,49.4768076605462,12.540139048473728,95.10535528199293,1
-0.7482828502319591,-0.1647333589118516,0.23046778403354742,18.932407173326887,64.22270940706457,23.160560796029976,8.001123064713974,70.84775240858033,1
-1.5047287759026635,0.6859863060171899,0.5693125121793212,57.339823930813886,55.546850083653155,25.85555420902361,17.489718801617617,83.91553876421419,1
0.8093178141014005,0.0001018447596047366,-0.07599355638213601,52.074892179769215,79.69365443067605,19.256174409597264,8.12877823049583,97.12709820098318,1
0.8644083833502761,1.8256297329308713,0.25335638693465246,23.12966190998229,30.101010678264508,48.56779360695048,20.35759129604498,61.64318842962634,1
-0.2193836159207898,1.4767270475358543,0.7402019430286086,18.630534067872517,93.93502777791716,76.2428148102324,16.663585629514944,122.4085497564595,1
-1.0212578346062988,-1.888624744213444,0.5321206242165597,49.22111693233074,29.585667576393547,47.448181274558486,22.120179357131498,74.49402650058865,1
-0.43760779151090334,-0.01857885354860973,0.30431508960381526,79.34321443529018,42.44254046974942,56.95198379669828,5.3334175417907135,106.49057881723688,1
-1.1200141296974513,-2.602291222507285,0.4666381505730683,38.763003197969205,55.32203986388207,55.07581902114392,28.71254503005725,87.15758344789354,1
-0.4508828482283218,0.09342675085100387,0.0646266435567564,59.64927819779471,78.75682507349333,25.830007203634448,4.649736591017511,102.11690926244557,1
-1.4811451679121697,0.8706456557919088,0.14394791655304628,58.358881840136725,18.344484554478107,69.67190404381549,17.241043672176158,92.71706108527793,1
-0.06857826683005915,0.10474126817034363,0.14122638152003758,65.61550762771157,56.93134145613849,60.78788138042391,1.8872891346211327,106.02706731754017,1
-1.1716413907065089,-2.206038682962361,0.012303896514830714,19.706580352869207,27.36449150524706,66.55838870587247,24.978994385307903,74.61356318838313,1
0.6055795122198204,-0.9373491061121956,-0.1786318390590187,57.67313014845115,51.93570134028038,40.96936463980198,11.301589385017202,87.76101556964825,1
0.6164637694230822,0.9182154185187507,-0.09790249596516465,34.262716809072515,45.67585697830069,76.92346195817044,11.102846628379087,95.79893879094368,1
2.356186702404177,1.0112202219221385,-0.017995295564080527,8.813152054064226,57.922650556061114,50.173467453846044,25.6407994112371,77.13677419305121,1
-0.8567922790155125,-0.7814896744604957,-0.4356736635174287,1.5124956461442025,35.17393134208865,37.5727946255746,12.388021075828314,51.48988235676189,1
-0.5469948328358023,0.32444836160486407,0.49589429676878705,62.85223439297979,27.15924641079421,40.71821975634667,8.064621752227179,79.66179419218757,1
-0.5051158562674865,-1.0425507196023256,-0.1362496722685545,95.33934101603768,41.32486102593523,48.54034900402371,11.66455316070638,114.68870722794642,1
0.2160522585402123,-1.6998786556592185,0.5698306230254183,61.24003044564179,28.30346967562614,56.78141126060639,18.05816425145052,88.17911538118501,1
2.555914785991345,-2.165621232614371,0.11579046064588563,31.40788995854555,25.992642943028322,56.067049811484765,33.520177725029974,69.32234209383999,1
-1.0347826511317,-0.5618885847123223,0.9428957872284924,71.84577292833178,68.22565724001348,34.871638571964326,15.084914259903517,105.03612031199042,1
1.3936496154290634,-0.9718254934980997,0.30609049407632816,15.377962091607749,33.11621370016733,48.436447997489864,17.263821798669877,60.65686129812204,1
1.4526264179374828,-0.713630241882271,-0.35404872808533167,76.6348991344525,45.73795217777675,49.67980395102967,16.567263304715333,102.14181785819677,1
-2.0371351625077194,2.287188210024017,-0.07164542887825598,70.50378042020574,19.97867663009337,43.910927432147744,30.637040728303653,85.4289185310324,1
-0.5535545328470992,-1.3886185687695758,0.012889078562427353,66.01757221573537,27.101311556168277,26.867994390715104,14.949415636450222,76.25411498341472,1
-0.9566688359347919,-2.8208272673007815,0.10606393604082011,49.63945315649615,37.12016598342336,47.21072817229921,29.80525338279293,77.91556254607679,1
0.35183363161013,0.5113966376642888,0.32977109191289006,69.99776817098763,68.03346921624092,43.1420262563727,7.028957237085258,106.72148289834658,1
-0.34219144285089276,1.1542000788079516,-0.04492800017211357,47.50170511970899,22.691558877594918,16.301357248916908,12.046955344318842,55.109464538606794,1
0.38076025110965084,-0.7096348614228492,-0.7772389618364655,34.87710403276798,20.216056903402027,58.577861143412676,11.19223127516733,71.1088402279987,1
-0.06743686980079261,-1.4498029244522816,0.3706318140809544,29.82735363458882,14.871327368871881,41.44207206621927,14.979466588526629,53.18150749740636,1
1.3099047787107263,-3.865443841898538,-0.007396382547850605,55.39753900127668,38.09880602298219,32.707668836635165,40.81367580926192,74.76762633989252,1
-0.44345784337639776,0.48767394054079094,0.6836689987359039,51.039427702006996,5.058070113047776,82.67216923146174,9.496757504365277,97.28974673033308,1
-1.2146103416983431,-0.10617603967265028,1.095944140432903,49.85243557980099,52.09227803659322,55.0246838493463,16.39403913777916,90.70053250670831,1
-0.830292298829873,0.43494741241632306,-0.5611784098501855,53.67190295360279,65.29845756067851,8.815832972866644,10.92467738995451,84.98400224436462,1
-0.22531919545194753,-2.4033639390772445,-0.13610663131279876,9.619116672331486,28.43303316072803,45.03186153247319,24.177369539681774,54.11869670783678,1
0.3143543109077185,0.6044185862132924,0.23187652452914806,51.86243689516723,43.253734980699,34.54979345408271,7.196576844403583,75.85701139779714,1
0.23220668751705564,-1.1403545862830107,0.36140599760144976,44.50467613717823,58.18777928082609,52.408187998747486,12.185823005799152,90.07275961699695,1
-0.3169038687269375,-0.5400520084174478,0.13199117473118316,57.038287007961344,35.1215117475022,45.53661258951434,6.399264832906487,80.99672745463252,1
-1.7154937463577227,0.05831244717265327,0.15422085956976483,44.899047050500755,21.393340187067693,66.09489453385608,17.233987376153422,82.71719599843942,1
-0.04875963253219686,1.6693000093884547,0.09590420173883785,80.17741266099625,30.99865111531045,30.468891754388387,16.727634737224907,91.20135545440681,1
2.154457912486788,-2.5422613609720552,-0.01995544645065181,65.15572223446213,8.15802838826205,59.712919990789004,33.32443539508428,88.75502453892085,1
2.23022948638681,-0.3730606775165975,0.16375278303234975,66.78090632715,14.834963604198997,33.43009642369906,22.671375796385092,76.1402452183555,1
2.170517204080172,-0.11357176745591474,0.73719241655906,64.42055085731148,23.49795380586954,55.55207967648343,22.9510264228057,88.25074935775105,1
1.1345044631241084,-0.44438323451994444,0.3288281913864119,35.051683836536846,28.339094638125403,47.471019254411516,12.620240946279068,65.46161083977292,1
0.14698560672876776,-1.6937648139118067,0.2653029673908276,35.56720629113592,41.7418410977292,26.61791059300839,17.207061567674767,60.95835156827718,1
0.31316264711589537,-1.7275848813510288,0.393657272066969,85.93718277688495,27.56620588510829,38.527226459855385,17.993294344484255,98.129721640372,1
-0.7160319045989174,0.04924207558814317,0.01561282299060704,34.01245906975884,33.477371190416235,54.83765892521009,7.1789291029617885,72.69629007171278,1
-0.13229614359677405,-0.9420765789143176,1.2138595879374787,75.06714666304134,17.180406142844284,39.077060141829485,15.422274959866423,86.35542538075879,1
-1.0237090054522102,-0.02561507971260405,-0.23137247412811207,56.33558930787044,51.38684241255893,45.384127212396024,10.49842598648388,88.73570419300879,1
-3.3479389692454884,0.02621339068752947,-0.2679342658369482,58.24218059695237,66.46023149288979,72.1857336295958,33.587454881924984,114.10475060408079,1
-0.8114096499876274,0.9533637700065479,0.21298193529836734,80.74905359406019,27.41672996313627,46.258178945468856,12.69901335859436,97.01497749089548,1
1.399898000131481,-1.774441770394241,0.3819331100817027,54.78715679293628,77.0705215137191,57.351099690298575,22.922109213308993,110.59225321665613,1
-0.6985290026772851,-2.080494152421055,-0.36131617267664834,40.82372071345867,32.04470856416328,41.98464326519225,22.241735684242876,66.75439903076116,1
-0.685786535774901,-1.5254966604921987,0.04623041854395843,29.59628522223642,3.8754144070062395,30.204293150697115,16.731946944159667,42.46478847839996,1
0.4735711118620814,1.2379693633240654,0.5422088858588938,99.88760269700732,66.41145279875724,89.6823003691034,14.32071303540303,149.76958714936364,1
-0.6289271737220045,-0.07214865810289581,-0.374334711479058,48.823015154730264,16.858766908975937,42.53352965230559,7.354463236226737,66.9104324838344,1
0.19959839579448124,-0.7126671991494071,-0.482494968933543,66.75625929064101,20.105487197286966,112.25148326835344,8.834791742839057,132.14016900952183,1
1.2214949942433126,0.5047484865208283,-0.024629681287875016,76.70798471239806,27.85845605457886,65.2884862091828,13.219030512132422,104.51217595988062,1
0.3368078876633333,-1.0769353999825373,0.06874955127519386,33.875513564022626,44.3800567716132,32.93911966922197,11.304671201447324,64.8238032119469,1
-1.2561924086981064,0.6568557814174214,0.13759695552863682,32.95469426794374,47.733878802446434,25.768812276205214,14.242232294914274,63.47099137359202,1
-0.351328831698997,-0.6425705326744924,-0.041859568571004535,60.165893415489016,25.88803351193595,48.1688475051912,7.335400881516385,81.30413814546876,1
-0.13954660991968737,0.8103765165643689,0.5304225887387142,22.70569031808348,35.87093534191897,53.43090494252231,9.78535373700592,68.24319730274729,1
0.6759269803962819,-0.06279705732546104,-0.4994667060960099,28.756435754374557,49.044106873901086,11.997022920841204,8.42785704514956,58.10495310485408,1
-1.2243661042811431,1.1489619980195152,-0.31986319630987986,40.388971307749095,-0.3620479017587215,55.86012116924982,17.092391566305615,68.93296177464465,1
0.5382396850001561,1.7117560870967674,-0.05620015609601625,21.621637319048766,42.68382425080728,77.51712049641998,17.95263021890419,91.09504938846446,1
0.4931813036799517,-0.600495157782743,-0.10914843886879877,23.220783033695447,59.42369230083075,46.665359238671705,7.8468822759582295,79.04451735722127,1
1.6097309179394224,0.39234098153521574,0.040449544265161175,69.63891817050822,60.1209411940125,25.661627539006318,16.573476520010434,95.51243700148864,1
-1.9767352260000652,-0.24864466982314823,-0.24102449059520598,47.15482651362935,40.81421428128995,29.329864225631507,20.068380927737223,68.91747736549499,1
1.9343657817129194,0.39593080821424753,0.17867281481573885,31.466319792100656,69.64408309886807,21.753234122355902,19.82537807233244,79.45835882223352,1
-2.435772121359582,1.3452823224988946,0.6527930037166794,38.93973261445334,33.71181987040384,36.439463384028144,28.581303434451726,63.09218705018557,1
-1.375363454195092,-1.493901807827865,0.29686763483271444,52.64136453065382,23.509846907415913,24.858392390153345,20.521933717800543,62.7834837635038,1
-0.6929821438862435,-0.2623205042289377,-0.1625072292691721,59.442670418780686,45.38831857390381,34.39764549215354,7.585808448997653,82.32088765851493,1
-1.2069542965374689,1.614115683523226,-0.10529379320587628,15.882207680698166,18.902159975879734,68.71505557367759,20.18215770578951,73.01571772611824,1
-0.9613583232299188,0.0006903098328140583,-0.11247735877024206,22.552467756889772,39.35087005430784,38.32112035738855,9.679160389243666,59.376872950687066,1
-0.06771560279165942,-3.7297620852434865,0.21881250273415856,60.10519657365652,21.311112098211154,14.352677044772655,37.36788664981479,65.36663898635112,1
0.04820328391964535,-0.31630272309914503,-0.34290339576659773,62.1882540389642,10.78314487066962,83.8572730458567,4.689922260004277,104.95569253929946,1
0.762738008074059,-2.530395090007322,0.14871788752605425,48.08019570934551,50.04167502100264,35.69660960571974,26.470333565265392,78.03923625779387,1
0.5233458892939101,1.0156880063989222,-0.058058163137169494,42.127726797880435,60.64137414290592,17.81647097175297,11.440645945445183,75.95754248910418,1
0.6492713405445509,-0.5836336734070535,0.48261895789158177,19.508660025836697,73.80985569925873,54.607976920246855,9.975482930181807,93.86433698520055,1
-1.0658195041982608,0.47731076829756847,0.16315182856226496,50.403210387534536,78.17870711926518,19.373081357676686,11.79158727324465,95.01426285301105,1
0.7573318482016191,0.8827726847468079,-0.11377616312595684,67.96863648588587,40.768225075331316,45.42888687594843,11.686676843873247,91.35407754627643,1
-1.3475619737652411,0.40277197562876704,0.10616392621167504,55.58621384916522,25.900442530437818,76.69439687776824,14.104677652178552,98.19720263735758,1
0.6698053781389779,-1.994167483917042,-0.08603482789787875,43.628165019677,73.91978234057515,96.16620742032799,21.054085565769277,128.90108786923298,1
-0.6142073294794482,0.2212734961350625,-0.36854336869774734,44.416195340841156,77.48022206521462,48.298676961284954,7.4969114860000365,101.53199208151729,1
0.6057917612729612,1.3055997801772175,0.22087166103550718,76.63656633039169,47.52653569534256,35.74046003287124,14.561451626378389,97.0016256434626,1
0.6940205045776692,2.366878484932089,0.7657234701807503,82.09330294873888,9.766055811172354,13.750092582902916,25.826557370261938,83.80782350818302,1
-0.4112421005570895,0.7688491695497619,-0.02517026787776233,50.38180695450888,31.236599628989197,41.39405611569683,8.722858781231094,72.30158718930467,1
0.9509502562809156,-0.8133350527370397,0.11142554841053778,66.16213399640618,52.84175452088381,60.80290684429261,12.562786119209747,104.24333300753327,1
2.1139930124020796,-0.7816691659888821,0.2264543468388244,38.09205076225348,44.16093486004288,68.8572942410259,22.652272982517164,90.23591008674022,1
0.5593734082146823,-1.1202081914854543,0.5401657377554862,64.46807366871249,32.62150757412959,38.270035136725454,13.636509913954342,81.76118191617422,1
-2.5363947696859506,-1.5388969861755426,0.577840690827922,35.62016754947169,21.307132454846965,49.293331126238186,30.224827916345376,64.44084669851718,1
0.7772385145913178,-3.0237483807086307,-0.11418508209737882,108.56588406591857,70.7306411668245,51.71089040699265,31.241306328922562,139.5112575012087,1
-0.680956653817211,0.15150312243064648,0.03252307819985317,35.63059908871889,-24.222787952823964,32.91807611227057,6.983644543501352,54.22068592854324,1
-0.7448119652356697,-1.750977641431559,-0.5970881632770793,21.479618814320492,47.991685594258584,21.018069363836997,19.942873010368995,56.624510155671466,1
-1.2614728973516718,2.200798721263287,0.796186338054836,73.41070000438461,37.938225462559174,-0.7190117104235654,26.5871050834274,82.63750240793495,1
-0.5444745807000939,0.06684118715582262,0.47134453553492706,64.36686918590016,31.639381599514625,24.634150206954082,7.232468351175681,75.83525349870773,1
0.8172581093217359,-1.8452385040019228,0.07067785695863604,59.52676902416639,25.038254535466464,45.9093895383383,20.193591343214955,79.23397294356852,1
0.617361473918221,-0.7862157027410991,-0.02216070540833609,26.84895897595719,76.89778728848603,71.03453171942654,9.998807016736315,108.07423830199355,1
-0.6190961543827859,-0.2272635755340106,0.02127376462017444,28.148350438892855,61.27354269921997,44.147535753973315,6.5983433844956245,80.59641170977902,1
-2.163262692878354,0.4589604285440392,0.44000217454374124,63.06587024991999,42.10258706453644,27.418451368280834,22.5476208655633,80.6331402299414,1
-0.44576605224643306,-0.5796478217014576,0.3265782936047922,47.07719348374718,59.487680685715375,67.6724313489018,8.008447742180953,101.65925567474723,1
1.8902764176161415,-0.3398094322043096,0.39763590838261614,47.68598284447625,45.95235131430373,53.8201809047585,19.61308160602509,85.33571013226414,1
0.8171073318039711,0.22244097534173662,0.2264433860542701,94.30597212761194,70.42512084317684,73.93264770813761,8.765962504405953,138.99406613897432,1
0.19094917165559674,-1.1145187490852468,0.40952958444407495,37.74875597763453,7.7828555563115955,52.35721725086713,12.026338215572679,65.01399554498944,1
-2.4829364648740992,0.5031245468262485,0.40054111936307696,65.66304361111358,23.925804487139,36.064971215297476,25.64866660573456,78.64325505338675,1
-1.2354547659988804,0.45199926340566243,0.3446897737150184,41.94898479815869,36.93809006508975,39.50906420447947,13.599495773933386,68.44783398739884,1
-0.34424006232748977,-0.4343665696224792,0.8994290498056536,91.50540476283922,38.1262942525375,53.56880831261205,10.564791303907215,112.67861659727406,1
-0.6867504569249672,0.8374636165980406,0.8256678014146268,82.52550665757846,51.19863042425198,34.61892860374479,13.618732751269425,103.10300298284405,1
0.9754790425291812,0.8386849167694742,0.3930607444934686,43.48350180204338,62.28102472559437,68.71010208887131,13.451574260628485,102.42469965248384,1
-0.4248468149611949,-1.4381673759208167,0.19720206352751987,54.22329618681834,44.99241682082398,85.40601426673062,15.125173953396871,110.7188813783412,1
0.016709357522407774,1.5037066380899,0.5516634388820912,42.58199647380897,48.81624758129329,43.69521204432835,16.017944330854867,78.13785258894961,1
-0.5411682434769469,-0.39670907998161614,0.6137015350448651,47.79370501349417,18.59014444019472,5.267034398860304,9.093243293810016,51.551657205011146,1
-0.3901239329632085,0.7051802119323641,0.6096834106803574,39.44441577028188,37.236959446327276,30.475910388844927,10.105392993993302,62.219242990373886,1
0.6940900475284248,-1.0829657353812294,0.04128986811407273,56.52835908557334,22.830617446098053,58.06408063435156,12.86965668266522,84.19103238344378,1
0.7600391382603208,0.8144849695488626,0.7078931654037153,70.81449685957716,64.96865402822817,42.978271325481714,13.199083267158345,105.2746445153884,1
1.9885660802330138,0.8434516773546753,-0.17695760611353228,59.106099423564146,49.53451343861762,54.07253394803388,21.672839642850544,94.18618761915207,1
0.4189136686032132,-0.5992193379885353,0.4197963137493772,44.497275527261834,34.519647783425725,66.58174565920373,8.430785383341146,87.20517454525115,1
-2.40644828014827,1.1404336837136917,-0.10478640483166352,79.87688687300135,29.885159357794038,35.33568535768805,26.65063320563865,92.31495255948805,1
0.5431136034358293,-1.448636983050339,-0.5765511469659119,79.15701365607089,66.8411310078875,57.969177715970496,16.51039890482949,118.71813328395432,1
0.04647035079872712,-0.22959011199381973,0.7276868417893958,25.26642565080737,16.739554012326295,40.30448700710136,7.644601053960347,50.428727989162766,1
0.5250516011921523,1.129642164814145,-0.0007583920234742469,32.81777684413832,51.22240199336355,40.47755309889181,12.457010795527523,73.06964655611112,1
0.6469885824926073,-0.28689628436590164,0.6264139915068763,78.05883664071197,19.534709467027753,34.5786867680405,9.451445353036384,87.58123332235508,1
0.324151970826595,-0.458340936820892,0.05609544480763634,68.79543219548948,21.4791355396736,62.5178463395946,5.641787070466106,95.40778723687612,1
-0.11633494419222852,0.8803443466835502,0.1991851926346221,69.67886323194479,45.733359334901,4.356403131596977,9.100630356974111,83.46054388509718,1
0.9093577375308539,0.8409366592101327,0.20778848269077815,47.6987184715654,43.29273245712045,24.642018558569056,12.558988865150205,68.96852547411991,1
1.1730923416661188,2.13249843523493,0.4112467332503228,62.41733921374335,62.457948910126106,45.576124790529846,24.683636470269498,99.36852000259123,1
1.0220403068843793,-0.888287772911136,0.2976245721791141,61.177363034609044,25.655707041468737,65.76267183203605,13.864349758876335,93.41099538145436,1
-1.2583754194452774,0.8379731840977483,-0.5688890078345439,59.51639863249787,45.83171392623343,73.69744156552822,16.153459247993812,105.23336258479503,1
0.7736838269474005,0.27266735630575134,0.12009632447305964,51.0160990296121,19.875684564029537,10.559788009271884,8.290701287748107,55.76014992706487,1
0.6336148501358841,0.7282805355538856,0.8965735835006441,70.0039253797567,29.04037504973044,55.13186457859036,13.174613874457801,93.71987752614477,1
-1.6366477958363468,0.900457239512999,0.6107494600472161,33.962531493583576,29.964597131716587,48.05710932967023,19.653127361199562,66.03647767592251,1
1.810050646133174,0.5591462389042373,-0.3803930221744301,55.90187852258172,21.401321033215382,37.55037448598927,19.322594829284373,70.66163873247113,1
-1.0733774228568678,-0.2634810831205929,0.852054947031744,57.229502866532755,8.33276559585659,88.53684235364294,13.95549714565024,105.75170653365265,1
0.8410919030447709,1.4881668326206874,0.383217790790486,61.291805389200185,45.4956502297821,34.998767756682554,17.5183674646301,83.97293219951571,1
-0.9974408661731715,-2.152620979104759,0.07595698671664507,61.56116562540653,25.270043752691688,78.64337797722347,23.73696447531843,103.02006175541793,1
-3.248850625268061,0.20149056040312965,0.1401462863815195,27.85889961594263,31.80778167696068,33.29902680204966,32.58108318153767,53.82079940862998,1
1.2120617510611202,-1.0187287005837984,0.486226122271904,71.42481294155694,44.999968207674435,69.73795274192486,16.562963792021268,109.49832462217427,1
0.34072638660389115,0.8506188617134195,0.04835893239672881,90.55459129770423,28.42857139788224,49.07887141394954,9.175976813251705,106.85061205292992,1
0.4679598453540222,-0.8158448572119973,0.3592693041921961,29.25371263183576,53.91230682646842,48.12945312820552,10.068086614832875,77.96640807756526,1
-0.14290752234891224,0.19469424297114782,0.7906339045979938,26.740830435675118,35.96314835480664,32.99496222693061,8.26698481485168,55.65148321775385,1
-0.2897993994493981,-0.1270910661768624,0.7061710350129471,47.86558524225257,40.09243226763778,52.36815126643536,7.738303184254675,81.49196673772651,1
-2.1832091947892955,-0.9123585458296698,0.20383690706480534,42.485808175940235,26.89760197765653,64.08609988801248,23.749421022506425,81.45890428533603,1
0.17862318706702732,-0.3239801951817716,-0.02936280213990372,78.4031994712588,21.998598516127135,15.604337764966203,3.7112206075293903,82.91257673650541,1
-1.6211069687115183,0.51749651463008,0.4668232472279408,52.159373711767365,18.535610497604516,38.51542402408109,17.645720134955578,67.4359474633335,1
-1.401877345432746,-0.36489053684352807,0.1894321464399518,17.05497219773799,57.93804299937354,37.43128516957272,14.609208512511442,71.05483806686739,1
-0.6783784792427405,0.23415725837132134,0.50218654274617,51.87595377418097,21.63717368166495,30.679703326502036,8.759099876488554,64.03535008972526,1
1.8051545305277557,-2.143593587185243,-0.32413315980744456,66.83956972401127,37.98618337673533,14.602829312718534,28.211059270068787,78.25420648347486,1
-0.5210863226113285,-0.5477985710069474,-0.8027131561633478,65.42845521163126,24.04090310808702,47.392912841564396,11.027069606598003,84.29078218429929,1
-0.19371971815771444,0.37027305485923573,-0.08236676495808037,42.2766265960036,42.55125954035558,58.655284756893394,4.259269283897821,83.89496572930268,1
0.3880925125338924,-2.5460195185764833,0.2031236801575046,25.22646147547477,49.640522680761144,1.1193465661015978,25.834261004909788,55.69388464928459,1
2.2960484176190508,1.99302412503612,0.11761109344700953,29.55743396513388,47.539410996596516,31.050615047449245,30.426659146756055,64.01389064360527,1
0.544767610964417,-0.7477032079296697,0.04995270312577199,60.68799904351777,39.65910202726532,55.52074075716823,9.264594484669951,91.31500564386849,1
2.062192214694057,-0.9174170756963045,0.059674663725996,96.30976158925986,64.24127992980031,36.21016992365168,22.578423077386844,121.29999435407558,1
0.08230694973471327,1.1680129888374768,0.2748802327792984,86.83216725969675,33.51860796171864,44.93537128269227,12.027418336619416,103.35622837072154,1
0.7333103201354111,0.85667674471587,-0.273387601778158,55.462356749503314,22.30431713036827,50.85839604597069,11.603360941382855,78.48650856822479,1
-0.47253342632161227,1.225632159344417,0.3731840901512602,43.05465004773074,29.60963326025523,51.50258279531865,13.655505827879555,73.36858528776486,1
1.6353992477462087,-2.0640267377849026,0.4512269525661661,75.97032027012628,-13.738034336047058,74.91353590821538,26.71767736264139,107.57444404520734,1
0.5691708997263042,1.3900081347522357,-0.47031002624151336,78.44175174006064,44.788599964008526,76.20824380481983,15.739344486210134,118.18131631776721,1
0.3569832581651589,-2.319491578281002,0.5123806013188088,56.40857062479182,35.62599778208598,103.42910467547955,24.020849503992423,123.08012939492966,1
-2.402643631463954,-0.2747553087056856,0.13611102219450055,81.30377648859388,33.51628188695214,50.23688601606126,24.221298705558883,101.27877339020057,1
-0.8429076060854301,-1.2344351958839046,0.7556898990478707,46.08865388082219,15.29157900466966,67.94189309580082,16.749300608552538,83.51106059944101,1
2.959068242904211,-0.3693189822340144,0.11482442632746248,52.92985275359644,72.76295154086404,42.59726215085197,29.842362550046225,99.55171104608867,1
0.4463943252361154,-0.9249153931434251,-0.016116193989225674,28.359171960907368,56.219526252759934,29.44112936149766,10.271300354801049,69.51012778346417,1
-1.7149804077017965,0.6661911644609032,0.7884355929652436,63.067564794466406,44.19337579308263,18.54010123836339,20.016491077761977,79.21052674374539,1
-1.879150319181356,0.5358581126388663,-0.24867327546425688,16.79960831402056,11.30903053518908,38.58288322584931,19.69819341180912,43.57476206670407,1
1.0354953289089603,-1.1571193712675614,0.9698364188604742,43.72388897596162,87.08667397738284,50.71628338780444,18.307808429473532,109.85448853960077,1
0.36449428395453337,1.139425321172086,-0.009432810226652183,63.35686922978948,68.31900746026525,50.17844938476181,11.963423939125502,105.82748433944523,1
0.5827193644198948,0.24119892554005523,0.6691684584590477,55.54253096766921,51.587683209059236,31.078642352771304,9.195244451063068,81.92767429668814,1
-0.058608688043142634,2.0440731826340293,0.6544248016428087,57.190734100679606,11.669101351838407,40.07927239470714,21.470775429133848,70.80463310422029,1
-1.0955054320295614,0.18281327602344902,0.3517242165173831,-7.477351598785454,44.41964738536326,18.592840795839738,11.65016210179699,48.73099208544098,1
0.03994272916943306,0.8688550077975066,0.7191510542492909,40.014036263263954,54.06387078068702,36.32624889122969,11.285755114373936,76.44358429833201,1
0.24171301155124653,1.630064268932491,0.49846024899221497,64.33018703136376,24.17738571350472,38.954147317996316,17.21626359181623,78.99585138918363,1
-0.30202763625154594,-1.46061052437309,0.0784444930590875,45.95202638644288,37.950032775575096,37.52350238693586,14.935720054488256,70.42589685669574,1
0.9535279706398921,-0.12650935071879785,-0.2337960380672276,38.62619464905705,33.02724359408872,72.84379203120704,9.898892837221016,88.82004148825793,1
-1.082732000750539,1.1307813356345942,-0.18564500340331386,41.12479390206721,41.045247321328304,37.257078172978694,15.765275391687384,69.02210425033388,1
-1.3539250225426178,0.513103375575661,0.26041090831050717,26.692252450270253,75.00315099451362,65.2994734879288,14.711226603724345,102.96586928577588,1
-1.6118281541669153,0.2335211097343638,-0.12180236729343136,52.072320273698686,39.61730421555832,81.364700284557,16.332048015894937,104.40915565404471,1
-1.4420463310279505,-0.8659989873592856,0.0594185172642713,67.4254855451239,58.494501358100166,70.91869121739454,16.83146585158989,114.00554176932211,1
-1.3544165399611208,1.4593077224423106,0.15758347980163884,60.34552686041381,33.05184711965859,64.08509400536742,19.972119931560623,94.02609469588211,1
0.26945219747412225,-1.0870320457184854,0.2247040319484437,60.05714934717126,77.15824335325131,3.349100070540125,11.422499976434388,97.83390095641937,1
1.9583610377533915,-1.9010004621597476,0.27713689286480836,61.01917509357996,53.88262014954324,49.33633025877428,27.43316527254716,95.18797175422837,1
1.4549275322818096,-0.8006826397806899,0.11911333231636662,48.95054233420654,48.30440430132162,69.32079119154818,16.649609003737353,97.64652150046467,1
0.5539546700266883,0.5555301749333299,-0.9219709018230731,40.49364379748675,-8.360823108810685,-3.15801652185273,12.105824612616374,41.46820009847129,1
-0.3495140406621784,0.7497693047354093,0.6331918219326168,60.974232373004085,44.84368563725748,48.15901059371747,10.417513898746517,89.71122257764668,1
1.0098435449538723,0.7006077057959728,0.41939038100942644,58.75600840361625,29.188804467401056,54.534146193188114,12.98662171000962,85.3125309130025,1
-0.9705938687535984,-1.4923871487263225,-0.42719158563382803,9.442058831360242,55.38362115834873,-12.049036222424135,18.307824858737053,57.46022312413736,1
-0.07589349405217483,0.9439641971395314,0.6353602904036497,44.233295924269484,25.377432756083664,37.09203456617841,11.403994591995112,63.058842281412986,1
-1.6831852297618624,0.3778382601290064,-0.25399693458101247,23.797588458734694,65.98021350561386,68.34905877428753,17.436710444583174,97.9352215805361,1
-0.04641968371516121,-0.2209197246016828,0.4552848973643957,27.491803114760817,16.207973266314287,53.322754426854985,5.081777735422982,62.14349342907119,1
-1.7674812188315019,0.3844324520020574,0.21950736580277486,73.80220367607396,63.667088258838746,39.30120141963402,18.22076192895368,105.09447096698337,1
0.006775659127844616,0.24779614557796037,0.1593721917225452,7.333044368655109,19.32765005789276,64.04762614312273,2.9470041536169944,67.30104019286956,1
1.8336673585088878,-1.9137441969053315,0.39901123833358293,74.21910001751826,20.571001564131446,39.03060787380564,26.802915515231348,86.34251133572995,1
-0.6247320708275816,-0.6023450703555926,0.024231561604061674,100.81014200491282,32.10866702467953,62.88855867012522,8.681571935312025,123.07973854683887,1
-0.47637810030247907,-0.018419974498434126,1.0620069159263366,52.82674503597941,53.3779425398816,11.06430635572049,11.64102263284326,75.90973992855274,1
-0.5450909704200474,-0.19961611985876618,0.725188720314988,54.42583668387599,43.57901141715729,23.734533093941764,9.289076603263794,73.65208751979867,1
0.19328085576569895,2.487421616435013,0.5389049317973338,68.61578198262337,24.702729190027885,32.32783065625296,25.52458092237595,79.77116647926196,1
1.7056396667164913,0.45418448384675747,0.07015172635241526,68.19671737837234,54.35472911078441,86.87779104383333,17.664686475434863,123.09743870019518,1
-0.24670417573302234,0.005713691790216725,0.1498094055156257,45.30537297789235,12.263453266934,38.06131853815427,2.8868400471610607,60.42874378604157,1
0.17755730401570527,-1.1052852420021808,0.3148304071755559,93.42203103001371,11.199950127121959,56.524482070205245,11.628844515597718,109.76398242560178,1
-1.0094162566588707,0.85412828158302,-0.14935921551361936,44.24755628867971,33.26791680673551,51.893607149979005,13.307007461732386,75.87850149558903,1
0.2542096650685227,-1.2914795219959316,0.6306458815797189,27.181521942551818,51.608039808034015,73.21148139773345,14.59539700557183,93.60633480909142,1
-2.445802212065393,-0.23924979953603157,0.48287685868865166,56.51980670615721,53.562601916804695,48.03063094807876,25.04467805298966,91.4897938759838,1
1.0805281226294063,-1.7363993324449067,0.39359999618958613,80.26837242633916,47.32828779082022,37.33461258801998,20.82677272769017,100.383523221103,1
0.6538421842776624,1.0214641819800385,0.5960217567869457,55.00621131400448,55.06336120411933,16.4164925945869,13.513477019525844,79.54343630573396,1
1.805036578176781,-0.5673757328834454,0.2833366876871154,67.335413745503,52.33174062864361,57.88971656469213,19.132046282117017,103.0722479886904,1
0.7056280597930683,-0.11396098849293543,0.059812265689638267,33.28104169848791,54.36543526215054,70.71824204490402,7.172695259053913,95.20660715360674,1
-1.4697302142135629,2.8969406298849223,1.2247653163622654,35.2072196057346,52.72140958851652,18.379010426927408,34.716598329638025,66.0066918246904,1
0.5899942974198242,-1.0459333483131457,0.19094410311322374,43.03158467537588,18.643112019517318,60.63046050150599,12.159479802257882,76.65073806605514,1
-0.23337413639472068,1.1744480757494806,1.1335472077916289,76.42444547852456,66.87689099040273,20.438639059818296,16.48854463699522,103.59031027011991,1
-0.12944376763882592,-0.9254599508616008,-0.664789956594896,5.31805842660502,34.8580923381212,69.0742221694754,11.468118834485171,77.55395873325756,1
-0.4981271836182617,1.2212310560033415,1.1677262622375766,65.06884315993166,-7.930558869999807,47.68398533452867,17.615676560171735,81.05930280693181,1
0.4990966670898933,-0.38986960370782103,-0.4723468319454995,46.404202162951016,65.58455787571823,26.267091708107245,7.900679215387011,84.52599787601196,1
0.666739923077821,-1.8146460930141477,-0.18888443566968988,75.4771056815045,35.24044567751454,40.66520839529358,19.42462328580811,92.69488479651672,1
0.6908851507029632,0.8335243254752724,0.49303324795155845,26.300277810753364,53.61431048500595,53.86327078530981,11.896078665705465,80.42046282754804,1
0.8948421955463945,0.5725177726695629,-0.4320179847719254,58.93324063617136,38.41499528942231,46.31906371946717,11.468036859546643,84.22763429430556,1
1.4313582757794017,-0.6598938138676362,-0.5186369659663204,61.472650316992095,57.70839101482157,39.75693164506111,16.592861904113185,93.21887547243202,1
0.6225314449063788,0.3002402325560992,0.5096310283917072,118.43831115722092,29.951617702362825,45.991875154881775,8.587277695766879,130.53729556347264,1
-1.3978212481220218,-3.0305734986195376,0.8887329741540781,55.78484496095658,30.737701256671116,46.14388044893309,34.53711955503125,78.65121047223465,1
0.06759419356278991,-0.2984507934782887,0.26890942410146823,64.57284088212465,-0.07202159545492748,19.632846783610564,4.073746795050072,67.49152272342897,1
-0.20672749866861206,-0.48271015737393963,-0.3361116373910156,93.96350684388669,46.60551420351243,27.838080293200427,6.234712403370537,108.51807815744625,1
-0.1804043634239102,-1.354539156881753,0.6301238514036811,53.65717907260988,53.129161343549576,72.3469516101793,15.047850776692748,104.57476779024982,1
-1.7507855542470019,0.1817820905136587,0.9181661406033652,17.736960919235884,34.235964440768846,35.79745856559118,19.852767683982947,52.61329759286437,1
-1.5971062989757316,-1.3538008363571943,-0.5932875306679666,25.23482283694221,27.125886130761465,55.955336260995146,21.76123923124667,67.10893858549646,1
0.8437210616819147,0.12659840157156205,-0.05811704273094748,43.99015578341556,11.802547429870188,23.31527371783194,8.55143248737849,51.16674623445319,1
-1.287935750239334,0.29579648858832747,-0.4451105539406584,46.9826770431877,15.891546327350916,20.08314496170488,13.944165319713836,53.50930665194298,1
0.6402235005717497,0.0280882861242485,0.17474322939955178,53.396307602252264,11.475907633295712,63.32019423586276,6.642366135066082,83.62002822069402,1
1.4614585289640158,0.390476479746565,0.7636413562785076,32.8849168072642,28.42125149996059,43.05027744491582,16.945444916365616,61.1760711253095,1
0.187068606997038,0.32471378686562974,0.012921452807678147,67.2340638616519,19.866429651619917,47.71465662654556,3.749675599929825,84.80437976569723,1
-2.100369780189041,-1.934006177429395,0.5545707218322546,68.94448022240339,-2.147866376674102,7.991425928926127,29.08518831532636,69.43930854701054,1
-0.569411576712815,0.06350836274085632,0.30414285022205395,36.742484660095236,10.769492077989842,42.91391601466741,6.486645737003007,57.51170599390308,1
0.4101739495261279,-1.0912628713925396,0.4519726103858946,41.7605662264632,60.411378482753065,45.01791502373011,12.50350576393994,86.13995713270958,1
-1.0568481850854385,0.06498498466974607,0.7183396140371678,49.940069790674684,24.201528392235275,23.702730260492444,12.795166804875892,60.34520667807256,1
-1.1033118893589573,-1.4260111513857978,0.38972089543591165,67.7754398170401,-23.659249374374873,66.14343496166093,18.446374455206232,97.61262373217693,1
0.24099487542379958,1.4970642757333632,0.523716689021157,54.4391670131518,36.56907961597049,45.80008817592516,16.04231637269654,79.99105303699623,1
0.004575806096166229,-0.7051075973462805,-0.084910049084375,62.039068320471806,40.6495699634169,46.01874900726957,7.102164305846389,87.28664729772228,1
-0.6906522612076988,1.2345854578024817,0.17073081588433098,56.65297769614657,31.674828783272396,29.7595681807119,14.249037897420303,71.40368728988821,1
-1.6581732187599176,0.5731436205484188,0.6101873756623306,48.66544336832447,44.9922707980486,81.05434957103878,18.5751464774996,104.70165898487325,1
-0.8695430864160428,-1.0828384068056414,0.21700943413321808,54.39432276128245,49.402859451885234,36.86652862694901,14.056092233939477,82.21025364078953,1
-0.6575464658600262,-2.45310613053091,-0.22607197828862446,49.53116451599346,75.12940593631218,28.388262339975793,25.497461798737294,94.35919315751316,1
-0.3593234755459756,-2.973372863460627,0.4879081148486958,22.661752194435486,53.52921925560025,56.310573404004195,30.344874153269604,80.93091500609562,1
0.07085302101261447,0.3161714812093851,0.13114775758676414,18.1630899067599,50.43094801985901,52.90624588708713,3.4954869537274376,75.31433599924843,1
-0.6278784254212465,-0.22342928982689264,0.2934655817913311,43.3172069954785,42.370813638058145,4.890621148332912,7.2819915707046645,60.791318833010244,1
0.26033991538296897,0.12744708340258953,-0.46677047069839234,77.38713495412443,56.21276857378959,60.364065245842895,5.4944909038548495,113.10377703747419,1
-1.0602308178822597,-0.6544139730525323,1.092158516443985,59.14019189811846,17.963643048880122,56.53876700872285,16.568516108435336,83.76686065623149,1
0.45932226270740373,-1.1633877414373408,0.48192650137768195,27.284702283611658,15.328098806517666,84.03100915524115,13.404108066840774,89.669482497536,1
-0.49722215696219196,-1.348955430473852,0.025659706245354796,59.710967173026596,36.08520350843293,7.751304084464891,14.37904394354377,70.197038598456,1
-2.441616235614025,0.5287592334215849,-0.30256373226828887,64.33993425429495,62.77590891207752,37.69877772985708,25.164699443916874,97.47635468106928,1
-0.3646571422115587,1.7712833860632193,0.3861989246745757,52.94785487545695,68.57913085678797,50.18688096703126,18.492077423938294,100.12639784883837,1
1.1875105450806795,1.138431836924022,0.28538987922877873,44.57945188664157,34.57282950264301,50.9748105836214,16.696274210632243,76.03314661625082,1
-1.151564602562883,-1.0046681846303114,-0.3780007402181866,65.65574924316564,19.911981605317244,42.776404235612475,15.74275628563713,80.85162447013951,1
0.18490678398718527,1.5456277502908526,0.19484863527554525,51.61833520716561,10.839517947664447,46.34794301204135,15.687962429526623,70.21452485308495,1
2.1340278348172212,-2.808235283942801,0.24737298956111342,42.16492832348821,50.18807215635964,42.113106684540725,35.35739470849116,77.9117290394737,1
-1.588808470038203,-2.4541466918599353,0.535507636499832,32.33398816625693,44.45386859307557,75.56510424698858,29.721905673058444,93.4436632601929,1
-2.2461810090708165,-1.3816408912341946,-0.10692931348106405,66.55694113822727,53.03156498313127,-22.552561843789775,26.392602289130835,88.03857872521277,1
-1.5202772575098218,-1.8888506437865002,0.081259635889925,29.34546564868898,41.267766814137346,43.96624906577437,24.260261380824453,67.06128532080268,1
-2.244925804143111,0.13661926751100695,0.17726853388543834,25.764713126252946,34.65921924226516,47.36413879430714,22.560542598680403,64.09714162650238,1
-2.654727669840501,0.8988216887431297,-0.3961734563911466,39.22453803595589,45.054166833396515,51.238873928115325,28.30620574489053,78.70110885246137,1
-1.9272581944355718,1.4165473411476086,0.32238335487799735,52.229828975413454,41.02659548935161,39.03409625811259,24.134749937038528,77.03763523717107,1
0.750957611464817,3.9029402198481056,0.2640444379810629,23.891385429895386,18.505972567878693,60.39773819197168,39.83289991847651,67.53633168264953,1
-1.065815095856974,-1.4901398898647031,-0.17807636833210766,64.28939740808913,10.84858060751096,42.39061446488198,18.407036434149177,77.7674900906744,1
1.5602782600022864,-0.9909223819711424,0.29708840554984656,91.13958923831923,22.665050588622336,39.098952930953516,18.720728982705978,101.72933384727968,1
-2.9676471069548795,-0.8712937249066266,-0.16323067432247268,80.48976917432057,54.02283743519888,86.68692282508762,30.972126758618145,130.0449633594782,1
1.3685382911432233,-2.0415534149694388,-0.9244042030638173,44.253502314529506,38.146139026429516,46.65822361602143,26.25901851010552,74.76958085162988,1
0.8505614164019346,0.4299064894669441,0.2539979555953776,19.816619350349185,56.73217349317123,67.06162077585182,9.863008031042499,90.04720369239722,1
-1.6819731158870963,-0.9377029108367128,1.0009938784555321,50.57534240685448,86.48563669949752,54.66511282550019,21.70324643057817,114.13108768040684,1
0.2494637958615899,1.7742182639730157,-0.03863701286814644,87.49999755238673,74.691083929198,77.62126110063546,17.92086898681107,138.7806462192737,1
-1.0981674337295646,1.7094249086228264,0.5083028278430495,39.668823559913584,40.41223237467872,58.54200465785557,20.943917960872497,81.44894350139215,1
-1.8521069944008235,-0.8514282180291848,0.4596871417793579,54.107332494861296,40.157482117545314,72.40941655613382,20.8962738244934,98.91082046839037,1
-1.3363071491614937,0.7091862596226587,1.1222142213883493,44.8419831429912,36.94379284073887,32.41732870033124,18.836206376083148,66.53217628877816,1
-0.22829019972329767,-1.5728744089781663,-0.16543232917128475,28.98339895846425,58.65710978964676,28.21462578299283,15.979418566528496,71.25137929987393,1
-2.1123362111465034,0.8449912179127691,0.17232048892460777,85.46467368180635,37.040304403568406,59.57962282605936,22.81593473468419,110.57090961886017,1
-1.3952213042885722,0.6009881804149831,1.148079217532998,64.16877321507907,63.7755087302301,62.72134842461355,19.041835968914334,110.08594150903048,1
-0.5708837701726241,0.5558963961363013,-0.025663531617616808,43.9046366412982,32.74174070693925,98.06110052306667,7.972375424796084,112.319268778424,1
1.2793745743409781,0.7428514568818116,0.370035903334776,21.953544184560357,29.277007383583324,45.91552175131417,15.249767730094687,58.71402218633332,1
-0.7245749445324787,1.5109968259681215,-0.25832809410699964,54.784836571576754,65.23723902193035,37.56992716312553,16.955393426679713,93.10625704227081,1
-0.37937654095969536,-1.0378462843336944,-0.22273191843427248,43.70712747544203,42.59216686273013,77.8024072955515,11.272359900327928,98.88184995842298,1
-0.6001960709387071,0.9604814728652129,0.4846289298059021,25.12897191290801,50.54453531387408,29.643080229379493,12.319193085963073,63.75678383498193,1
-2.302612653766,-0.8005007185043903,0.18905419867150658,35.37042460188957,59.63966608242309,63.56346968008487,24.451110248094402,94.06525067585771,1
-1.1278109379875536,-0.43581033346647974,0.38330822835704254,44.521979951583,5.989361057368626,67.82835541312976,12.683900648171068,81.35579231213062,1
1.3585463671238596,0.7929176859999677,0.16951328138161317,18.39065154504601,32.48179431660185,43.950131342457254,15.821192878420206,57.66192046139788,1
-1.9284559097175753,1.125817066379702,0.004992747684414767,94.16319599585894,26.660517722282794,48.02547560713191,22.330318381532045,109.01347161092488,1
-0.41306648420133985,1.5615947170683813,0.6613206982574367,52.05786645707684,9.17566483862171,59.46222312524127,17.45436062045825,79.5611102504832,1
3.259540820590172,-0.31927097548871125,-0.29982442223677597,53.226573695748776,37.18957638120936,54.69407293057705,32.888349002424526,84.89743431069081,1
-2.877534460122337,0.01598235481211962,0.3193197557696962,49.35892737375182,36.06775592571521,27.85698522692799,28.95241805321571,67.18034202754222,1
1.9148258562271132,-1.489455281907569,0.07389351039415487,58.58772577850641,55.77088471217924,26.564040111570435,24.270342699180464,85.13848378098929,1
1.3830719584132014,-1.4252945680961158,-0.29864601128926954,45.040139149975715,15.201890228549487,37.19208536132534,20.083680160897334,60.35696160919761,1
0.9912160446049051,0.15577580892162476,-0.294023179061264,44.8606149675187,29.967804059594013,42.75606398474442,10.455739952546026,68.8376718293533,1
-0.8040862118481771,0.39249380969954567,-0.006508871939270577,61.47954044395685,36.62532637635227,73.78292618257873,8.947895798179237,102.78651964843597,1
-0.11651550229567145,0.027533255945406284,0.36230810336192115,45.04731483642697,46.67385101177535,54.11803730307586,3.8157712748523127,84.47763552431309,1
0.03655822519532584,1.0798019044112241,-0.39105892393883396,12.146876137854107,48.43544911962494,28.791254163677795,11.4901511678121,57.64091990630996,1
-1.4829469118928595,-0.33495843539747194,0.7689810242011901,22.118512062770563,43.90614967427005,82.00818076334338,17.037196108861348,95.61548131554603,1
-1.0240851330089868,0.5286506436251671,-0.11472073976752978,44.77450404485825,84.41336820763291,38.385411388620184,11.581807763851666,102.97481610614341,1
-0.6540499027170614,-2.4266171350772643,0.44608111492368785,72.02252776213425,-8.850086121886484,32.31934809412817,25.52496886694741,79.43619320461947,1
0.3859803317334777,-2.511006690349568,-0.23576587442546199,71.29945359363069,69.72706961118129,58.42338720896828,25.514154822390218,115.58013883138338,1
-0.560865838787694,-0.2833595896633099,0.4022095726780115,62.70095508256372,30.70292476201685,64.78835242621301,7.460802145393024,95.2449996971543,1
-0.8482098370869185,-0.7651790543075913,0.2136692614164868,79.36775885990329,46.25123197652051,55.38863372534557,11.621589676788384,107.26750836926416,1
0.8087637659368003,0.06474614309072765,-0.07694971608253737,76.29387058295175,14.512809835568707,54.63607820250422,8.149921171045666,94.955133506313,1
-0.5521399221113501,0.7410963506975875,0.45163486183566987,68.02082451181717,83.67028090970591,15.323252452221023,10.286186577307133,108.91441842332456,1
0.3539107099887074,-1.6966215487009533,-0.21129256236507077,52.8563337273399,63.88020135091382,66.12456554456372,17.459730860101853,106.05154552474248,1
0.37631836974477983,-0.8370526931184086,-0.14693535190832274,10.698352433223583,41.867187452915594,38.47358652747559,9.294421574818802,57.857868870968495,1
-2.517771969770851,1.3597394898283703,0.08142821379179824,64.54162403980445,50.75186823032492,19.71150885633055,28.626382457383315,84.43883551990118,1
1.201976095435634,0.282399754398052,0.027458687339910914,44.15743447647339,70.44956030030536,52.16461371706879,12.350101759877138,98.15378999458657,1
-0.3459407313305556,0.753232375626778,0.5086823316596663,28.551638044122498,39.582197260800186,30.439081758784933,9.725182341882304,57.51942344385481,1
-1.5175696477672556,0.0019780028833942644,0.6001874715420823,30.281623802099887,19.87089724818891,52.22129562182368,16.319456330760275,63.552285670634106,1
-0.3110500158488419,0.6481140797259738,0.06711294251450503,54.23981449543086,76.49692828573137,80.40022995163062,7.220167032358503,123.52301198532264,1
-1.3019970159755234,-0.8485007462163142,0.5503099342290276,43.826649340947284,24.818274625895686,53.44708766599667,16.486330002914432,73.43917978734149,1
0.798961909375146,-1.3306468975743564,0.5230343341035407,53.77415554679108,41.29862046382395,78.03017917403821,16.378419378278764,103.37284323708025,1
1.0935582166345885,-1.2956743194592868,-0.12027449418049174,28.027671595559298,22.227750994754164,56.14991642354181,16.997374706776576,66.57654544750761,1
1.9188012821109708,-2.1455325737093687,0.5959018541878518,34.70292679332283,48.60690777922794,45.14951379471477,29.394229714185695,74.86924073196036,1
-0.5712507047089705,0.6255856214652811,0.23266139050464069,50.05937651487935,51.081163011865996,36.48851771904965,8.785306255596048,80.29096036937584,1
0.6544495558990336,-1.0146979244276388,-0.13325886076593435,56.005931982228645,61.035559171650604,42.840150418815476,12.14773239344214,93.2592214663023,1
0.2576052935501239,-1.2078876418737758,0.5288413457818274,8.587627174228942,34.6383382749775,50.21148184068403,13.435126391905552,61.60158056066961,1
-0.5377025541955445,1.0403863272832334,-0.6042422293842922,29.920413573551976,30.06707729195193,14.14704343134482,13.178150168204972,44.71464103781849,1
-0.12957240284348345,-0.9765132410855005,0.7053695338680841,47.63755918959289,29.98265643394987,25.777463876518574,12.11574717837584,61.90940458673029,1
1.413880862248318,1.3702905430172205,0.4578214555563661,34.204590752472,32.812207492629845,47.670151167083766,20.214736580233307,67.22379267325003,1
-0.295079319142913,2.317192266964491,0.42232963794970924,24.31341058714649,24.655919806590617,22.56405647897935,23.73776343667746,41.33029107899876,1
0.8658687196552416,1.4919085196200295,0.8920275113834999,49.299167653082435,73.66082411814475,16.42142421961658,19.419662076507084,90.14426279276786,1
-1.9874854892287757,0.17153449292733644,0.1490190863755707,49.38226636485689,52.870647029896546,23.670814715292696,20.004322883474444,76.11978072732016,1
-1.0205839530432435,-0.29668063339113554,0.8836410611158514,64.70153016618481,65.34402608569863,62.43325498066697,13.821839705077927,111.14873403874272,1
-0.15126787846800824,1.7394469231309417,0.2867633492078724,54.09070852752034,25.467706490818735,7.138969464446056,17.69404077053862,60.21107628938338,1
0.6006841254787197,1.921303051266066,-0.40498449242892337,63.58733258036858,20.8433393532595,65.85544185661618,20.533483076464016,93.88680888288671,1
1.3293887540519838,0.10512040179812249,0.23362003889012828,66.14189660208712,15.255266049943156,44.42814275790342,13.538475101890572,81.1254183181349,1
-1.2719327292167693,-0.40267541632385717,0.36830431186477375,70.99995413447584,51.327771169849186,45.4127277721093,13.840550656323597,98.68054227691385,1
-0.4772626843028337,-0.32568608026813367,-0.3074411660509137,23.26710786812121,-9.827792750011959,85.81598280999951,6.545006977010131,89.45572493993947,1
-1.3003577479127768,0.6131438092104483,0.4669702896931646,42.57350823492431,31.173143903501728,44.45556789837346,15.116007590584246,68.9968551560467,1
-0.37410749205703847,-0.6144325090525443,0.2951193140804786,44.67205772267595,64.85239462482389,48.16685618347204,7.775468689006112,92.31181866018704,1
1.252820138933007,-1.4800973489047993,0.3211338308217626,16.97171912001609,56.78190242754186,38.670841517780296,19.65546590658536,70.76480535458911,1
-1.4674814882132114,-1.0408341248307682,0.7192326804568441,47.6508130596561,24.978609203533715,16.804037011025702,19.375585777719934,56.36405381852048,1
-1.0787262576685919,-1.0866258684869323,0.48689298366515654,67.5135177100708,15.759516151233278,34.952516391133116,16.066956446667252,77.64094168015644,1
0.6789960684612908,-0.3771297661206255,-0.33332658479563476,49.136770853903116,50.902008255239906,38.34266486669383,8.4520360482644,80.4710919737336,1
-0.6989740522594241,0.5168653755702622,-0.3778755033721935,27.22116465303867,51.44726953351544,63.85790129049234,9.478947400656557,86.40396347823571,1
1.571875203945591,-0.5505481069279101,0.7461763309750793,36.89781025866392,25.185137124689014,66.39146295876418,18.250134223419646,80.02228369447293,1
0.30534044662004567,1.3608871636524562,0.13263648545173268,22.608655105074654,62.870055938769404,23.847631662090755,14.010135965825398,70.94014910679964,1
-0.975047529684252,-2.1066564376895656,0.07780296807699166,61.362222627682286,39.046219216855505,27.695127901540467,23.22664920612494,77.82640753897526,1
1.8578325283810049,-0.31585597588741376,0.04282099680518242,19.17771722814781,32.67964681556842,44.69070469770277,18.849775433096642,58.59183595391393,1
0.4817400534862936,-2.0131423724365742,0.04656148691416334,9.041969478707294,48.319672170408865,50.07813283779852,20.705032390450864,70.17383642946888,1
-0.6648525903814086,0.6768801549661814,0.9627945926533017,35.12462458302104,60.62707815358442,46.193339096982825,13.517282044724627,83.92381327411096,1
-0.6714410807456551,-1.66229015732354,-0.8029887884529494,26.928790258628123,51.190736305300604,67.2027788681259,19.643911744937025,88.6671569177124,1
-0.44067524030934985,-1.119697714182488,0.44816342962538275,70.76142244869101,45.02252204868381,53.10167059546228,12.840436512131419,99.26728473477712,1
0.7121584476253705,-0.546310389310514,-0.27660845301252,53.22048827769998,37.028516783555744,78.93109206521552,9.392214500695577,102.14523347819221,1
0.26542919746641674,-1.7852452726329568,0.525186959858851,16.935474404113286,12.564236078021437,34.76659201406271,18.797272900960312,40.66185241462716,1
1.8009716711251882,-1.1822380498657632,0.1370691125064213,67.79917276361854,12.43373420345755,37.44957230894613,21.586972247976682,78.4461346389751,1
-1.0075760165029104,1.078240712521561,1.024832660404211,69.1016830828316,58.89464304253978,20.75213260456223,17.966898577667905,93.13577503637154,1
-1.1528727986393168,-0.4436761363146038,0.7673043707031793,72.13773051664006,28.457469406741705,37.94462931365527,14.542077571921103,86.33350811172757,1
1.381909483952224,1.2190572767178622,0.34726701995329434,51.60826859445469,43.35766900402421,27.86311558348886,18.751983492161873,72.93595861301036,1
1.3433125547711984,0.7434351937767109,0.1480549698932818,75.264739993748,14.744327425013747,33.01996665170829,15.42434692705607,83.50146391065506,1
-0.3845391265865657,0.5599463345767384,0.7097283519377904,67.86717575392846,78.54177663307624,23.607988064442537,9.824075381562457,106.45234296127784,1
-0.903428231927262,0.7407452779139534,0.28648160219932867,44.07086133028249,34.74825980747144,18.961396138195006,12.028956086850318,59.23864381930161,1
1.068991948131283,1.319897198124504,0.2264393525881434,41.83819599039394,21.286617134800576,38.66811994737524,17.135189462585377,60.81758144680533,1
0.5582890457370353,-0.6534424627377163,1.0562898483505057,21.319761214316003,27.47731051026531,35.36989501221838,13.617716234475719,49.6040752790367,1
0.24622011299791757,-0.37878608608139747,0.6639239867260539,56.21122596236968,57.51288065413304,9.908611581884074,8.030556040547806,81.02847615998823,1
0.6554898097973955,-0.9103826571912919,0.5391561810680577,67.85748017056007,60.75031596598163,12.705736075011743,12.446496940291254,91.96017743715161,1
-2.503386788262622,1.082920542069616,0.2577722808690214,68.3211448142897,36.179259138295265,30.138814842505937,27.39727880806526,82.97629649871052,1
0.411078049299313,-0.7355210697314839,0.25256014380802083,34.683787417784075,22.851309364665237,29.753761985895046,8.796380124090835,51.09240453956896,1
