ax,ay,az,gx,gy,gz,amp10x,gvec,label
0.41651098381363316,0.5115889823144273,0.9976029127048948,1.3902541728411197,5.968091806297265,3.981083916946842,11.960001078178053,7.307527326481066,0
0.2790052403172516,-0.11711591619542971,1.0678455076122273,5.553037962585101,2.151792251514488,-1.6693800337776228,11.098892242374452,6.1849228131614105,0
-0.021000838293968992,-0.25746709673817303,1.17648076242512,2.1370614473348564,-1.983221287992036,13.132442693705492,12.045070881768297,13.452183815659392,0
-0.35355338427079164,0.08706534007497618,1.1039421952657533,3.273209831749467,4.216366804815596,1.2101188175018924,11.62440854177051,5.4732110490903265,0
-0.05572133916501384,0.6174760702167184,1.186100783262085,4.195509884499045,7.221154904019267,2.1526019598645525,13.383634158865654,8.62444644811384,0
-0.19962309412246634,-0.13671945190335305,0.8539849726272764,4.570698222975733,-2.4632697936000616,6.096658702882147,8.875989644591696,8.008010218587676,0
0.14705208630426908,0.1834930061050246,0.9497851343464282,3.6528650326489336,6.549275785832487,13.081168089572065,9.784609347344222,15.078242432501193,0
0.3853759188198373,-0.2621551710157791,0.9555808111749486,13.881700456559257,5.648817331932792,4.319016716302462,10.631907727131189,15.596943617609249,0
-0.3554634998983252,-0.082884060578303,1.146420385781077,2.7491328475485197,10.182921252555179,6.210626798958942,12.031225075578746,12.240159389695755,0
-0.0349080779258454,0.09353636309202461,1.105695481847944,-10.85792346799515,1.5094719310917086,3.538106961934516,11.10193732509744,11.519167002074544,0
-0.4554435735708001,-0.36939664371302144,1.2192626178546853,3.5692497017543343,1.011702716639916,11.929970462196257,13.529538278859505,12.49348954652803,0
0.0720141262103727,-0.546646227130203,0.9351192512817027,-4.826093491103338,11.809077084948978,3.8966728565548983,10.855672001894591,13.339023177659929,0
0.02989046944403004,-0.45673636310151355,0.967269358445853,14.27656784074949,8.034757206900142,2.937426751111883,10.700988539994958,16.6435028946284,0
0.2285029591628227,0.228988183653729,0.8840788909296678,2.588397493294185,0.8081257528726145,4.225004522394719,9.414056914989583,5.020311945487389,0
-0.5644096516586616,0.36262044074950023,1.072990959878797,7.567839951667329,11.341849796977495,3.565820220473402,12.654491056207815,14.093432236186741,0
0.16912745470491358,-0.05533756187269739,1.0994306136703609,1.9299154811267765,10.793966750385913,11.013409527635226,11.137387557073533,15.541218787345342,0
-0.0957521610810866,-0.2992302545740565,1.012958486307176,13.034781841353478,-4.990880428346049,10.476371250142211,10.6056217007108,17.451899027685563,0
-0.22892768426699212,-0.06755660419798126,0.92128972594474,4.527590034665478,4.805599677789507,0.5309363139567216,9.517071705760888,6.623802016565011,0
-0.20385830725828732,-0.0598926961728557,1.1485483777815835,-4.479429524022082,5.107159343203156,11.478000421258876,11.68036266816136,13.337648184292721,0
0.15134176774497865,0.20507779692282257,0.9789271183026669,-2.1249397560396748,4.2679767584471815,9.492089275656276,10.115629176691172,10.62218213901796,0
0.07477711078589352,-0.18193683231283922,1.3013473098440902,5.242830352855605,10.368070492926392,12.971166603083143,13.16129723123054,17.413653232451093,0
0.6154529776905047,0.010761469135168122,1.0795610124617476,7.71552925354819,5.00343462914691,0.9961505424774089,12.42718856617815,9.249652190962772,0
0.645544268436599,-0.3354083922500765,0.8384170794391954,0.5985008608527274,3.5461488664444465,4.635935616231657,11.100312568565244,5.867305523089102,0
0.036222535717603095,-0.28273832346836625,1.3771542999577393,7.149475733243536,3.5794628529336294,-1.2038627054922815,14.063452625666311,8.085594782664115,0
-0.37039043152879464,0.42539047500884325,1.1522724048797375,1.894719985505664,-3.7749199504801716,-1.2502912272020437,12.829176992479564,4.40490778664278,0
-0.0899134998355105,0.6994502543094444,0.8496705805357707,12.189688571963035,-1.0836825699019972,5.293193080791006,11.041988911125616,13.333445480605882,0
-0.21915999488024568,0.14954103308897465,0.9605982465731989,-0.32892017618484015,8.655686607985743,5.88863385624019,9.965654094201401,10.474020614397482,0
0.07431319673099741,-0.18169109323846463,0.8228818726557028,4.600308078839686,7.458085851368143,5.720953935574938,8.459720331759936,10.46495068882724,0
0.10241022335556016,-0.4265631619273264,0.7704858138493228,8.145202317883244,12.5196037983327,1.9915909175494058,8.866185055051737,15.068219352310427,0
0.09023432094756366,-0.6837488677289727,1.397877178780672,8.884657472333899,5.593264261021853,-2.0116501131443245,15.587544238119523,10.689643570860373,0
0.3834291420882071,0.12141151418385573,0.8728478676753209,3.330898662898529,4.6966346509574395,5.076314359111032,9.610525807073563,7.6760817100647225,0
-0.19971495526308414,0.43423396693472804,0.8392997653671227,12.191986482441287,8.098014747561628,13.46317112246219,9.658515918819585,19.886662714303185,0
0.48553017134481574,0.30601436341538,0.978928151707039,-0.3190949246156771,6.682242942020706,5.582653921663149,11.347619416015,8.713220823332895,0
-0.02459771320566635,0.3472970580480118,1.0226310708631416,6.789569043294347,1.0414254366541478,5.1280270488436175,10.802752432220448,8.572017040781182,0
-0.2949878857088638,-0.31300745302885297,0.981240510578347,3.8546194186325256,2.218145504035361,7.927365919139845,10.713656975872667,9.089630947156829,0
-0.10249649861472997,0.48277464140332504,1.0879123395221237,6.906724031872403,18.143647423905936,8.360063842466339,11.946255250474474,21.137299878309086,0
-0.37603562351074177,0.24416608000824686,1.126449589786654,6.876978537472761,7.659938009900701,10.1354622656089,12.123978485242485,14.446282548045515,0
0.040182335031723596,-0.1936241443713961,1.0119027785487984,6.686239170561483,9.56344866754818,12.260329422634001,10.310442098023419,16.925750270350935,0
0.19044752895209094,0.1758115108284892,0.7803596832286557,1.8239648270588074,4.598812358695532,5.602300419793813,8.222780453304596,7.474068021797792,0
0.1051846281894752,0.5817982186891014,1.4303958923417897,3.6812995997716422,6.768094536364013,11.926902690301956,15.477678708725783,14.198946375712929,0
0.049129632956760955,-0.6383182247116846,1.075048514533029,11.616930404303051,2.3301800673239192,-0.10423122266424656,12.512366624396902,11.848783706032972,0
0.11209790804307736,0.11637477906731739,0.6407214897982437,1.0412190432830348,14.343821077054974,1.373293647947691,6.60782155993851,14.446981540451807,0
-0.08201084289949781,-0.4819731086778576,1.0587740880390473,3.047055412489548,1.0730552737753913,8.713510500187942,11.662017086870522,9.293075892525819,0
-0.022373317319640387,-0.1992955957581394,1.2280624509020477,-2.287665953232257,2.4712938227981285,0.5881275799374217,12.443298128438542,3.418567349411342,0
-0.5184845725607844,-0.00048623147730731867,1.0375071609476356,7.128852735031338,5.6373224504109265,-4.682200309355233,11.598480923906422,10.223646387889064,0
0.1046521892378549,0.08614074000497318,0.7379478620572586,-0.10203032707706328,12.113896580449147,6.9909460184086,7.50292846104612,13.986787579060607,0
0.13483551745638542,0.10432506305990058,0.8463878260496611,6.743676469842529,9.015044511790762,7.514451757399531,8.633867543779294,13.535700391696082,0
0.0179109113080147,0.09370704677527933,0.8688405138226984,12.277612693108992,8.979669776857497,10.774621537403615,8.740627264784367,18.640459007698304,0
-0.028639408767661304,-0.17493582166964808,1.3479722859187118,1.6559609030084315,5.70116894260543,-2.997407014919423,13.595778907597435,6.650562580527258,0
-0.2948377671746833,-0.03539449950515699,1.1142225097688996,7.6406538893840565,1.053567334071925,0.9235919014504486,11.531148602040817,7.76805110598585,0
0.03644792771814,0.29953064152734304,0.5490469718267392,7.630130003797323,-5.109879129362277,3.6245339915808197,6.264979121440395,9.872537427007563,0
0.2697235134776943,0.6085224288112426,1.1594400942243421,2.9986493392175007,9.437582488009008,3.1404147533985185,13.369187156233684,10.388554562638967,0
0.14141427534484147,0.12130485049027293,0.9634930973136572,0.7944042291622386,8.286831363363444,-0.25914691320002703,9.813418428839354,8.328854017615868,0
-0.1975654903436718,-0.1872365359619867,1.1953712256122733,2.090359072811299,-1.5969754792155904,4.814348426816107,12.259698244229211,5.486153708135337,0
0.1048678645230972,0.07560115255818708,1.3923961432239624,-2.1177468472594576,13.04285740191303,-1.2544070665188478,13.983847192181148,13.273074926491123,0
-0.4428862758341013,-0.17710276830825047,1.0191415551807033,-0.003448022135473572,8.876602764918328,-1.0725229355322714,11.252391538516548,8.941162898765189,0
0.09439602248490221,0.142655665627253,0.9287743100055913,11.870337453882833,3.05531022892805,7.281001577401373,9.443955563866695,14.25667618465704,0
0.4586342987718832,0.33646834828073935,0.9774445416724452,6.619771029081032,6.841462104523229,6.734420721997916,11.30908573426695,11.661020309816928,0
0.060922794955428496,-0.2298928605486368,0.998629291990814,7.944034151540725,4.481827738381688,2.795323053467296,10.265587061140199,9.539826489544692,0
-0.21156047274410203,0.6114310294422526,1.0016874259611663,13.084199543310053,1.3320814322483838,4.417326509796741,11.924694699325546,13.873842010252565,0
0.19383462609986704,-0.24102781462291073,1.0836012843031637,8.220314458172156,4.912916948997319,5.276550861511208,11.2687976867128,10.933997975722054,0
-0.3841798779470071,-0.031249812264867685,0.40233520039770476,2.6625302001427036,15.418031581181253,0.6059692244054906,5.5717532506835585,15.657968054824389,0
-0.14601066567330492,0.004276508712040281,0.9175637656222808,7.8193806683724825,-7.977196770211892,4.6316884449972475,9.291182201421226,12.092597744038184,0
0.008023627715359936,0.6846768506910388,1.0226844165622704,5.25731812212387,4.917632159565898,6.895130502777853,12.307437525143994,9.968215715179241,0
-0.03632010076080331,0.5902031294009792,1.1097746861732927,-3.7315849969799153,6.070007182789332,0.3030649169930042,12.574811083054147,7.131729252622512,0
0.46076893953747144,-0.13581298326812893,0.9870396932453438,-4.269101981308946,14.170433239171196,4.997146197570929,10.977251651067025,15.620431493160533,0
-0.3359811584614662,-0.02855298386159585,0.7883101541966144,11.476045360058166,-0.7713093166820872,11.397109166526139,8.573981052801548,16.192239885878276,0
0.30600462240574644,-0.3449971759047317,1.0978476026178225,7.754835992374532,5.972008964957187,6.974730356554982,11.907691795178545,12.018703586194565,0
0.26309803741611604,-0.23523761703076107,1.1127311988374642,-1.7651787370992338,4.214436260993943,4.671666808581724,11.673594282074323,6.534661409919569,0
0.10276182223403289,-0.15801676598043157,1.0525453640994011,3.5059982224588326,9.862996665669277,4.4772230958017465,10.692899671870649,11.38491341260303,0
0.06924352982261323,0.21062449827586344,1.30173490385727,6.427398554528262,2.144077773382823,0.9733470408434535,13.204813916207039,6.845138869225732,0
-0.14807532727205272,0.34150233799786905,0.9337817247011176,12.942310948617266,4.714985394412948,3.399695077524303,10.05235524039282,14.187756220783072,0
0.21408071783875374,-0.21605234486955452,1.0393864772964085,5.919992611402283,5.568031348836579,12.78019395905211,10.829743388744843,15.145383562382186,0
0.13621800430940803,-0.5242202742946515,1.0626316852268576,8.177706637560199,16.84817852840093,6.238753479441429,11.927063088320061,19.739758117872388,0
-0.1154316104844122,0.2700989087812382,0.9788458470602964,-5.809129351783444,8.683592525242963,2.9320338574837814,10.219672546275786,10.851155952783953,0
-0.17180449145370066,0.5866424887373937,0.8717919252070749,6.527098558355497,1.3947865452032278,7.461161937535158,10.647475539919903,10.010863227279142,0
0.1070901236057163,0.13803682475407883,1.040707719096407,4.019708755180822,7.500848522489776,11.248231966202114,10.552701152543465,14.104733581294811,0
-0.33862660515089976,-0.2001654567267638,1.0661605666399563,7.330277239183353,-6.91073189485242,0.2669844911731989,11.3641213546877,10.07782022286303,0
-0.44256528887194485,0.04755027246086437,1.1331502991026607,2.2774049805290937,7.6456233169796075,8.837214681918189,12.174377453002926,11.905397628168132,0
0.050679931845992586,0.5324219043498252,0.6136368287744549,1.5017281023053997,8.137973803489132,9.92510180377498,8.139973570913966,12.922439813550168,0
0.2638307223133975,0.10342261087050285,1.1798785300503503,3.0325272731086894,12.146362403556736,4.7117002610957766,12.134315935187512,13.376489100324292,0
-0.13444340072665423,0.09495078091870074,0.8020900272886663,12.688140176349116,8.1818345326799,-5.366587475739822,8.188034505740386,16.022845520993,0
0.3818626351795799,-0.26361475967880993,0.9651190790828199,-3.589250433241922,-2.6201594485004005,8.590761443228365,10.708719113304262,9.672080251039707,0
-0.057088750891334604,0.4734947200308335,1.487151804805947,11.03813563735429,4.371599318904519,1.492540674561242,15.61754419207129,11.965742627137564,0
0.2445707122303358,0.12893378238265427,0.9826275801527338,-6.376460208260436,13.165247522377875,1.0471337888824332,10.207819134355628,14.665588167026401,0
0.12880690799240413,0.14347130234780645,1.2652600523656905,8.773834273161588,1.9807837136577144,4.864758739169363,12.798664907936177,10.22592536465631,0
0.3034966405667567,-0.03078790782536496,1.2238060333127772,10.859281420208617,4.638815565855121,3.5187116207985847,12.612530726528774,12.321685529490308,0
-0.44428410768519283,0.01946936689581413,0.30864921510778076,15.394008555777187,-1.748482387909391,1.8242593630092214,5.413240827596727,15.600019624977955,0
0.36896837338741384,-0.06830532710557494,0.9734348824316453,-1.3250254664461805,4.3164181605458145,3.404735330840876,10.432539233599194,5.655031467330377,0
-0.28539590940292775,-0.1704390192458297,1.1514268906147929,4.570224904702227,4.6211742077686395,9.48179351126092,11.984507369167305,11.49550411805834,0
0.38053625201775126,0.33826109149817274,0.8944158315842694,8.9712289653356,5.470575530764492,2.1261932209533922,10.291783542757946,10.720580366710742,0
0.009129183782429582,-0.18180403946458243,1.2313477736330407,9.615299211415028,2.7566450301547265,11.992412226316073,12.447302480430123,15.616370313014814,0
-0.33809129985454933,0.23185991077721474,1.398139969581335,0.7945226702820589,7.382829583309665,7.013918976976771,14.570038159880891,10.21432809074485,0
-0.14821400795117126,0.038909648909936895,1.446847169206894,1.7122529912170528,11.974423150656252,3.4915694194333646,14.549392028443137,12.590062633189175,0
-0.04033564785315882,-0.18835681817042202,1.2061018685956473,-0.43352602069504975,7.69805064215308,6.455965225674505,12.213873148469045,10.05621278090771,0
0.03297069628514944,0.35122700338709867,0.9145981202811496,7.545117270305259,11.485086428270854,10.048597557830078,9.802740414514815,17.02381619281466,0
-0.23389848665718405,0.17569060831767966,1.2440986980653588,9.081660971300963,0.3253113231394158,4.552600008714268,12.780286626048252,10.164081871667456,0
0.02610589425956975,0.15238123610606527,0.9400795619028478,-2.293416090276093,11.128045262769401,2.5009701279029946,9.52707269595312,11.633915949242752,0
-0.10159274431445907,0.19109328109710774,0.9518568621937465,8.53913902598785,5.903320494788976,9.168131759611772,9.761502004728197,13.849936033460455,0
-0.03609614251075847,-0.26183394926295833,1.0772326515423187,8.58372778185306,3.1283641582467023,5.6482130918281905,11.091844454551683,10.741012804678059,0
0.1718531310479073,0.22981620723548424,1.1114741931837782,0.16433373846530586,5.860648102999672,-4.415735879584739,11.47921543430823,7.339817785411546,0
0.06580971654377908,0.22683805576268837,0.9404370980365769,3.515259585884446,0.6926780285157159,14.350586148122845,9.696434178074059,14.791084328136195,0
0.42452312823414806,-0.10920146129738555,0.924716457574235,3.8409680751848727,6.337455760028856,15.975795032822816,10.233500732710352,17.61086051831876,0
-0.13942858811233064,0.08916086449008646,1.2212074487860658,9.636735484855308,3.0407734492502136,10.433483148399723,12.323707331441254,14.5248251136692,0
0.06764446993279709,-0.017898835277935555,0.701121524417715,7.525461823741343,3.633327956348009,-1.0038703339808661,7.046045235581562,8.416733531864677,0
0.34932401778688543,-0.008338974940419982,1.2504794801252415,12.529807218294543,6.318289834364807,7.791526536013125,12.983819692679512,16.05069285482905,0
0.24182823177482737,0.41440154510448407,1.1000443763569954,0.8397531495864747,9.569606962137051,-1.991483379437736,12.00127978268557,9.810635494839214,0
-0.4622771131147574,0.12510295892567394,0.8870485893455881,3.313335809720866,10.498791009092818,1.1478434772372603,10.080704734797417,11.06889115895639,0
0.4283263903396447,0.7026600728639268,1.2831202398819266,5.011459983791104,-1.5284973002788762,2.1018950933584386,15.243333705765224,5.645263337487776,0
0.14008893473021142,-0.18679424349039106,1.1154690477304157,0.9326429298567476,8.798905077900205,9.702406614502198,11.396438897653923,13.131155604806677,0
-0.1254057454129954,0.47783494365554713,1.178566510428842,12.770353480910291,0.5989248567037206,4.3345368574245535,12.77916998034421,13.499216598741835,0
0.04297405888128298,-0.10564662711392742,0.9130126493106314,-3.711661867088411,12.151710994250207,13.509078092601019,9.201087312695707,18.545503627978732,0
0.10710587646264802,0.03178129338499472,0.8189585652464321,5.720770676157019,9.946776283763265,-0.029031490382105396,8.26543919566619,11.474598833765267,0
0.11947051798746053,0.023064870412533935,1.2173702055114783,6.91036985874295,8.158613641158997,8.410892890366387,12.234359035856347,13.603650515341261,0
-0.10178946080423847,-0.010554765878482137,1.2027995265438027,5.877647939885766,8.330471797632192,4.060165498722209,12.07145061070774,10.973989682581394,0
-0.26026497349943095,-0.051543263008718115,0.676347822082354,-2.517627712293775,5.31920987597185,0.7476653954671422,7.265266277486249,5.932237903685682,0
-0.12649620246740373,-0.009194480678898768,1.1461646415089912,3.1772449601655914,3.687088060753192,10.65157125024099,11.531605322586547,11.710912603363019,0
-0.3202217080036784,-0.2874843750776486,0.708881886828916,10.709744003558459,8.008276986353797,4.781234641579857,8.292784439889314,14.201806983963818,0
-0.028807659530869667,-0.17552278856589837,0.8677369643046572,7.539531696900768,1.2479585199099037,4.167821725540778,8.857796395121404,8.70475023259581,0
0.0261219822342957,0.04126744097667043,0.802646007085663,-4.03462259185374,2.2379492430956476,4.6704533880174335,8.041305692057541,6.565038546955569,0
0.13426036564511215,-0.06341286580328793,1.0834093610402207,-0.12135373167762786,0.5171909166119946,7.609368137861763,10.935368676556472,7.627889395496229,0
0.9168404415972035,-0.3284344915041432,1.0488445993971216,8.57569714702115,-2.601223087612091,13.277481835823256,14.312723724861907,16.01875360349766,0
0.2922480454426901,-0.42361804388341034,1.091092127278546,9.008124185396689,3.8402728220332114,0.035037675523036604,12.063760596836719,9.792610700210734,0
-0.2601393687548448,0.29467519297903455,0.7014810320771,-5.1563914143305585,8.617269567527616,7.845194391118726,8.041029777941093,12.743342663981856,0
-0.005254645473647395,0.2895022090309293,0.6336578466753211,15.185606191531058,-0.9819432800575019,12.316443162727818,6.966788406332192,19.57706873334773,0
-0.15002875961448678,0.5482065196986797,0.7720562422232639,-3.497500064896734,1.4592036708040679,2.3193293117192764,9.587021738305946,4.443092449301606,0
-0.13299111005007436,-0.1338560619255529,1.3010778828703933,5.468210130889625,3.6141954497358126,7.0364682792275675,13.146892172529117,9.616424316191063,0
-0.06653743010394703,0.09028021614033305,1.0347294704094847,3.5481546290591237,-11.03558624329466,0.7321400971746606,10.407895195307626,11.61505893772386,0
-0.345643294736644,-0.1821857080691254,0.9856109447672918,4.2370191664111205,-0.7646163710368334,10.098762133648458,10.60231037965841,10.97824968942703,0
0.056554385035568075,0.23160779194436093,0.6493677658202877,4.701552350597083,-0.20875644880161204,-0.7886146994443779,6.917507231962433,4.771801222232646,0
0.054324040621282134,-0.3362866045617524,1.0510808141279016,3.7400052886387596,13.539927700313742,11.487388645290924,11.049030091482543,18.146001751811006,0
-0.01673218921348029,0.05601203044944256,0.9181286328464794,3.3051341012651947,4.411830912118434,5.169928296463138,9.199877717467174,7.557534122651389,0
0.6340196407150295,0.2973892162529125,0.8525047219567422,7.726526640618443,-2.647008262407393,13.079298207118672,11.032613252146923,15.41991920407423,0
0.19972332772929005,0.18047012466720794,1.1175831158392013,6.36131556802915,5.0308566779987975,6.231265464809521,11.495437766111895,10.227635306538016,0
0.17085181465657368,0.07520878514790967,0.8733183716054967,-4.664998430679741,7.050993738706159,8.24170003345599,8.930462933793216,11.806961611819798,0
0.637253966328314,-0.0793186600155297,0.5848450727325462,-3.346965809545676,5.311801132466029,8.278252488444124,8.685780486101201,10.389748585195239,0
-0.006398808473938734,0.22843447615868132,1.094381615444139,11.446704264392478,9.621534223659067,-3.3234810985513725,11.179867507577633,15.318175020084208,0
0.23565916270744355,-0.20504025530916406,1.3356011294228338,10.662618103859684,9.370507244009918,1.5948441128921669,13.716439494930054,14.284304623719889,0
0.3688859088189391,-0.0984706104555809,0.7189419706378901,-4.329542148502384,9.697092111977852,-1.8111840369337795,8.140336798888374,10.773064478572728,0
0.35414817262124365,-0.5608442845015187,0.679758641504252,1.999299851559794,-0.7840909625818107,14.031818114323189,9.497573639244356,14.195207576062346,0
-0.7565424479037616,-0.21979816274858874,1.136163953110855,4.802062193547683,8.47096598034319,-5.571091399581169,13.825831751386083,11.218472504459728,0
-0.1016959363195568,-0.1824348267715437,1.0686366090639725,-10.289686859225215,7.767479424268011,9.780728491117799,10.888566166924,16.182522735479235,0
0.5844798243621588,0.6866396137992052,1.09046626083744,-7.401978776708479,10.516557141606455,9.82437976646304,14.14993742159141,16.183500910470666,0
-0.14404412765115565,-0.3020389549712675,0.6683262264997678,4.235830282815318,5.6066175733303005,5.965609161374133,7.474196853564513,9.217641317856886,0
-0.10092354283065728,0.07066459635034868,0.9753011267363719,5.129590722295313,4.773007483306721,-1.0455042717836118,9.830520507521898,7.084305230315665,0
0.02762586369648253,0.16614864229713736,0.9132236854517841,4.155657176621937,10.443491787003163,-1.01160313866849,9.286258984931973,11.285359904982023,0
-0.0925702533607541,-0.21700519489587475,1.171029432433954,7.020925326584949,0.8241088853965302,3.1396112815779493,11.945586791973257,7.734966509034349,0
-0.23202571062549157,-0.1938454242842347,0.39475001721131375,4.0339282293954675,9.22731541191416,9.71330029876448,4.972318925768256,13.991573512826939,0
0.19473704892138433,-0.7569800620087852,0.5859075084135019,4.082042954143812,6.06369348056603,7.371323802093334,9.768464264748843,10.381130376844414,0
-0.4646655875715708,0.24651832323002346,1.0012114765414488,6.027167313503997,-5.359245325117337,9.558353459539955,11.309773705603856,12.50641344020189,0
-0.23544298775336808,-0.3653061132274118,0.8072815952537061,-0.8355565395751032,6.994530222245787,0.5636159984070996,9.168345166271392,7.066772301015284,0
-0.5080031874583594,0.02023531411016916,0.6283443787269842,17.64065669873576,3.983010368533482,3.05041110247661,8.082656522968113,18.34017852292089,0
-0.21898558191490422,0.32943120017759486,1.1478380289495256,4.916089668159652,5.4696508127969565,1.0681453478413476,12.140888523661651,7.431416562367609,0
-0.2624080782033573,-0.5953631640227848,0.718923914643898,4.664486182552402,11.549134233331785,2.31417091284192,9.696220354491267,12.668674749182806,0
0.21698161182742784,0.3740660067758589,0.882924463364526,0.20145908796172662,5.959188010255756,7.1627944863017525,9.831388535217197,9.319771046473896,0
0.458091494193149,0.23856198539508497,1.064653650895064,-3.01095989563229,2.388006564284568,5.812502925592304,11.833203430567503,6.96804456818348,0
0.21427652055694688,0.0012446261590732682,0.7432538256165184,9.779037998206116,3.9126653667918903,11.393500260304894,7.735258403245863,15.5161329790776,0
0.2675159578171315,0.0908260918110793,0.8840479545637037,7.64860869095867,0.937670962415373,-1.5046042668607331,9.280921035160034,7.851386867364326,0
-0.019767146946726245,-0.04264802106577756,0.9524219849030516,0.27106791067095504,-2.2424592889580266,14.343260087106879,9.535812661361952,14.520027940786576,0
0.4874028217247033,0.012578840484593306,1.0991739117143973,5.814051742092731,16.93712761340744,5.322081163744488,12.0245707867128,18.68138210534928,0
-0.09507660908053901,-0.32235220664405223,1.0362704397389304,6.3244983729375885,10.749146262386475,6.066367598120934,10.894066876053493,13.868822620359627,0
-0.03392542866811054,0.12811186109470835,1.1278053274275435,7.023198965714855,6.091778902138653,5.027478316006539,11.355652514221337,10.56932505519987,0
0.019579340633281286,-0.554834394925728,0.8317103092465917,0.8658443394103896,4.3825834684487575,5.467270133314003,9.999832973001569,7.060295106341991,0
-0.10483145790975339,0.523528333636084,0.6485201015580487,-1.2467481185628078,3.8052787351722275,8.42586559244193,8.40029685673144,9.32897304666439,0
-0.14864840262490153,0.09571575477436214,0.9841539731309575,8.757246725801407,0.23815014537851553,6.1371094454824044,9.999084438809437,10.696270287073556,0
-0.3975240231671127,-0.3309008878061249,0.7742625179053279,4.054025424447666,0.4798532719006374,3.840254996391887,9.311300624396932,5.604724769507836,0
-0.07114121645037845,-0.02333027797805329,0.8861189446080007,5.455118344564406,-0.8649369752811094,1.065595428328793,8.892761992439524,5.625115620259441,0
0.6122863939392618,0.31272705975634457,1.3308210127906062,-1.331697248040947,9.000380787749048,6.398409940318674,14.97924367313653,11.122945727157479,0
-0.6170574798484523,-0.09669520253281824,1.0232197637270297,3.041033700717533,4.857291131541052,10.230266023483217,11.987862947629091,11.726018336020214,0
-0.03002482927447069,-0.007736968258059842,1.3105680919941503,1.5531653753290904,8.55108876757951,5.924155483975516,13.109348095172296,10.518034987223745,0
0.24029499690291806,-0.34970794821401774,1.0538924519686705,4.370545017469954,5.924178965695866,9.984102590661466,11.361015073034487,12.404832312779476,0
-0.06540202652190027,-0.07023921446373907,1.0210503754931228,3.847775468162724,1.873335652040586,1.9323598134022832,10.255509941569468,4.695612523095715,0
-0.09440457128656472,-0.42160980013562055,1.1163408520702598,7.455935615319351,15.331929083473682,5.118864967176467,11.970313047916296,17.800612457795946,0
-0.15519904867691475,-0.41736485271512075,0.6568178529027835,6.890406496123807,2.9121636692930095,3.0836914414667236,7.935299974695074,8.09120212482363,0
0.3926558730832579,-0.04754464333260465,0.8827406104663907,0.44065045166203554,5.894936199306421,5.875369592335637,9.67300425484749,8.334531388205663,0
0.022414203313801017,0.008348390840719758,0.9951039355194964,5.964809686971325,5.4203075922568305,-2.971521989243837,9.953913474740535,8.590030962052676,0
0.2892451891378839,-0.2510503996079537,0.9493685132073111,5.024500692163795,9.38489185139747,8.771560366618072,10.237136594049058,13.793551882427021,0
0.05831127938796465,0.16228931758454124,1.0697135171610834,3.7837954580867157,9.778108491743613,11.962465481798699,10.835243590723067,15.90688826100729,0
0.09084364455959408,0.3865082493351272,1.3280264545350002,10.313686384193357,0.5746401907146454,1.441940554772831,13.861080255542053,10.429838481193205,0
0.3753260417049457,0.09822628905132136,0.9411580108249604,6.853675204882961,5.150244237578388,15.860683086790958,10.179864649309895,18.02939675919174,0
-0.08554771712964625,0.07601509578419353,0.9775213876140211,5.541896736981993,14.030289997968747,-1.8447523616950345,9.841975258737524,15.19752506648543,0
0.017820551468898105,0.12190220775670364,1.1123838756730469,1.944611236447153,1.750345087780893,8.019089771267778,11.1918524256175,8.435106492919147,0
-0.5087926332258123,-0.16365790792086451,1.053506505584412,11.302785192022892,1.794139694024377,13.563894901945778,11.813254470121976,17.746862687520757,0
-0.11453887837529599,-0.10704635257063298,0.9536398274146739,1.0714049770948808,-0.862200260272795,16.078200773295112,9.664403740995283,16.136909184231833,0
-0.2761256811869026,-0.017699899865124148,1.384725323189628,3.7522563277124292,8.448062152724134,9.498962711398669,14.120987567974083,13.254413388667574,0
0.18196716848570196,0.3928893872914761,1.1395948945350556,9.907974895872332,9.87287337007385,8.209554038223002,12.190777845171898,16.218457775795247,0
0.3337040138891429,0.20894240818831825,0.8785923507126598,8.321553388871951,6.8820480646163595,6.045818137976995,9.627771380522372,12.375894041443134,0
-0.3735815351367468,-0.5861160567086702,1.167545517267516,16.152304776036633,8.145167663121288,9.6107097671496,13.587706687363843,20.484297597592093,0
0.06440457322480027,-0.475748254331012,1.0733234997498768,-5.169760737217217,0.461189654725926,3.2800718316761746,11.758008699038276,6.139869151590644,0
0.036705210211538344,0.3705703481331897,1.2675998929478958,-0.9150451622559697,8.214368239321457,4.728414723154109,13.211658275832537,9.522135212980421,0
0.17643770414521584,-0.10900463349568931,1.1171417122108904,4.845494870510143,9.005451042073528,13.954616749065693,11.362296769267402,17.300528824999194,0
0.18535902398319748,-0.037157447908066674,0.986147580280278,1.136128372559135,-0.6324709262740846,0.974533259338056,10.041044237526751,1.624968376637503,0
-0.4755031425478612,0.028420411759411155,1.0052092092484768,8.195956744502137,8.139388739945508,-4.093809470389305,11.123652784654032,12.254902365892228,0
-0.052155954879149584,0.15672145946710128,1.035228043820537,0.4463451718861524,-0.5010332640452706,8.930264804782379,10.483219744903518,8.955439008093395,0
-0.1696683893163587,0.016428518700791865,1.3346008511911776,15.543985020024497,1.9156558566692117,6.960847288893513,13.454429347096537,17.138804002707808,0
0.0811046643933245,-0.2590932402843335,1.2867508171395077,4.098320109584508,8.228555110190111,10.249385895104114,13.150798223517004,13.767906817988699,0
-0.1407906569809634,-0.25475299175945665,1.121056964413971,4.41550400265748,7.854368895168875,3.8896622375961045,11.582270128798553,9.814135655342334,0
-0.21627636771253894,-0.3518883420471391,1.2266535099606395,9.174942277455678,5.086726446618679,11.528773069623256,12.94325965898224,15.587397480921693,0
0.22414083361253404,0.08382585349180711,1.4441478319117724,7.40177084234161,6.578703709296397,-1.733205716937328,14.638404446597397,10.053335573553328,0
0.1914630027068242,0.32410663623394464,0.9050427264099055,-4.871695780842991,5.2259693759454,6.07966950942485,9.802068810633145,9.381181004715385,0
0.1817354243747447,0.41911574070876184,0.9547299849604187,9.175251741441514,5.17971813695065,9.321209502328552,10.583927025282458,14.067681794929154,0
-0.11856618018666656,-0.07094454891360295,1.040426197771156,5.427540806933655,0.9229051350404207,4.0247060148233995,10.495607372196982,6.819692926002581,0
0.0662603077869301,-0.12291061838404546,1.2359242981826606,10.52983805079008,1.5596364348806646,-0.3947149928151772,12.437870876230663,10.652030562781304,0
0.13237271107234058,0.16012960582477223,0.741878305307481,5.061779973894814,12.283191512786235,7.321343572182629,7.704203042392757,15.16906331801164,0
-0.002650775295876634,-0.21261786698984267,0.7821431573377176,4.7925177827596865,15.861252723115715,0.17540499096511208,8.105314938626341,16.570405292432316,0
0.21949698333775836,-0.1077203930863192,0.8238162198921904,1.3598058234169876,1.931797779407094,-0.3170837718908306,8.593344942096211,2.383580637678836,0
0.41719306793679783,0.6264078006372527,1.1743853965463529,7.6706815679269384,6.0134660911243865,-5.472891992194047,13.948540598410473,11.178268063696567,0
0.4354919830186539,-0.19237552980760925,1.220932764015353,-2.3056455104554017,10.144649100885218,0.98988585733502,13.10472596427887,10.450348348764566,0
0.4753312905209369,-0.3280195654524287,0.8885830128604968,1.3536744131658818,-2.998929778628683,0.14280960762079786,10.597718819690101,3.293388652745783,0
-0.7586884767342907,-0.05758719728281463,0.8762180935819873,7.159143489269832,7.8517010460622965,-7.993205376640361,11.604665602854485,13.29638586270129,0
0.7397491582836628,-0.49276605786654926,1.084404985536908,1.0333349066454938,3.514452088299622,2.1867326726494336,14.021345789987596,4.266257644807467,0
0.23416301948970522,-0.36797356036542933,0.6187855609586117,-4.015424312772325,12.308906795895094,2.832011014261418,7.570551045171085,13.25341862715177,0
-0.19066442883350623,0.07495450207557684,0.7729934208510214,10.114198187180218,11.156279585273587,0.6300092196175768,7.996811430081174,15.071711607218171,0
-0.11831500608767427,-0.1291728370813305,1.074669500127442,5.964409974025266,5.24781020347906,7.961565855505866,10.888519628532302,11.24723206578169,0
0.23514247348658215,0.2078793146499241,1.3053218939780071,2.614395032774059,3.0287632802533366,2.230244602159461,13.425241298371668,4.580661456674793,0
0.13207035689968627,0.3655559783512817,0.8464172993880924,9.374063696946642,1.219355105505925,-4.830915140319151,9.313946516828432,10.615914381752573,0
0.5576807395146376,-0.22768421122260757,0.9441491575691454,12.749809486027171,5.7233736962281245,5.921094086953319,11.199399711610356,15.178076412484488,0
0.08152380897805757,0.40898585369242474,1.1190722603931145,2.989071765052242,18.7890676882451,6.376355598177913,11.942521860696619,20.065431102383606,0
0.23289451489353738,0.20587402264580387,1.3749290314565417,-0.6019755615819289,4.263601919833585,4.53903290850957,14.096289617519515,6.256476296773077,0
-0.2429356901321313,-0.058725296428546216,0.7193939869870547,15.998179409925765,5.321155636554474,3.8407089803856884,7.615734491785583,17.29183296277822,0
-0.21069127416313368,0.14345218061501694,1.379508533113814,-4.528751662239484,-4.398510443457999,0.7285815823001549,14.028589145261597,6.35510164053361,0
-0.2386505086603073,-0.21924288452895932,1.0223929841621426,-4.092407799487415,3.016208321079286,4.9910604947136274,10.725245553200045,7.124324465894601,0
0.11342545685100898,-0.14476337218944396,0.8762675969660397,5.672815421722279,7.534986606249056,4.559545558346025,8.9535840292151,10.475987479179027,0
0.12776227242768587,0.2693840738293429,0.5445373834905178,17.101761817973916,3.5439752920671186,-0.3971301116956214,6.208155438674828,17.46962307764847,0
-0.0016292762594602853,0.046361864651605904,1.1845162202299262,11.078773881613541,5.438579845348482,7.911611757817371,11.854242924045781,14.659842497809695,0
0.2616498158857529,0.020206380387813142,0.7291123975872895,14.177936076376714,9.458749068513315,4.663209334740501,7.749024533945619,17.66995547890647,0
-0.3711934869012114,0.24716249590490286,1.2101164598658642,4.917459603801492,5.8732143820691896,0.8697415326422968,12.896727300125846,7.709248112907437,0
0.4644227971717466,-0.5378477961960789,0.9130254742400743,0.8882245983113588,3.410198836272756,2.652956480399205,11.569720407240276,4.410961020781477,0
-0.20866256464594352,0.26855153643208934,1.257711612151346,4.655574620759865,4.262596917565499,11.172963468125829,13.028808437247807,12.832740166900312,0
-0.18175006647633848,0.05713790507733207,1.0893491456682938,7.699097919655842,-2.1495873167932125,7.107122407999504,11.058839848867608,10.696168628591073,0
0.2323212858787246,-0.3985819877952138,0.941389628625367,4.176497086274185,0.15555096201996488,0.5124061180430095,10.483583422430208,4.2106868849690064,0
0.17350655216870456,0.2002522680143872,1.1438252685418524,1.2140467838635587,16.126415318943735,-0.9424259561870807,11.741131714810196,16.199486020098533,0
-0.23512900199298614,-0.1338711399861551,1.023526312346148,1.5520967885678356,3.806234163482803,9.553833382367635,10.586846753232592,10.400584370427868,0
0.5540965305907867,-0.3676289575575267,0.3975271343449869,9.791767720000442,2.373524780393177,5.221701604886258,7.747269442765738,11.348061623733582,0
0.16867470102321575,-0.1586531047922587,1.2166174264294436,2.5764549384374216,7.145284212312298,1.8132606298511393,12.384586891444126,7.809040954962787,0
0.23571699989616335,0.28132445251305055,0.6727862283529671,2.629571720331303,0.1193210709064303,6.7595862929750865,7.663858432168658,7.254025903076516,0
-0.07536676162600338,-0.011428276456172457,1.0326222919792045,-3.7438550432953637,5.577495588284938,-2.9582246518610322,10.354320606167915,7.34002729650404,0
-0.32246066260708633,0.4406848938881462,1.1534196057403903,5.744570691513529,11.258327585492836,-0.27186559935219634,12.761507910652742,12.642149475313772,0
-0.635104991689003,0.042246109968936824,1.0679365338413627,6.707001189991953,4.005418645606346,14.651284122587118,12.432342999567298,16.603836000451757,0
0.1477131794544561,0.3533680580425007,0.7603975008042607,10.99131736917349,11.65780799178076,8.445816056149223,8.514062056730843,18.11202234808223,0
0.01570422271699094,0.020144004108685255,1.0594041320493153,-0.021468358395643428,7.417409565402194,2.9632045403151746,10.59711997910677,7.987428040306631,0
0.2132686540532636,-0.5358423154635588,1.3018077359717453,5.52303586912238,11.490054775993869,-3.9382590877114723,14.238377320744524,13.342981998372549,0
-0.05401650079727495,0.24626133225910488,0.877298770970631,1.5947240650748702,4.57822749654453,12.360887641731875,9.12806419604393,13.27760728238959,0
-0.09194843074657211,0.195576881930014,1.095230318084568,-0.5867311712990118,6.137984345298943,2.193871738519289,11.16348637439867,6.544629744728303,0
-0.1883352165437912,0.06174930811434277,1.1528787358743275,11.205264456505649,6.278068651803451,4.99440780420185,11.697916525921974,13.781008919946986,0
0.11424345804134167,-0.32234484489356824,1.056737692244617,10.525797925138116,0.21168406917219862,10.118495064802207,11.10699021762953,14.602094866231003,0
-0.03353395574476758,0.20629742006194057,1.1387281206561726,6.942044896784883,2.3616848393802448,4.025590084694622,11.57749923120379,8.365101204380446,0
-0.2491858105527914,0.3247575889928458,1.1026640691168,3.563266518752247,3.9906217383698475,12.698871111778438,11.76192632654412,13.779813411507853,0
-0.16081620767917024,0.4521224040755957,0.8202665567973054,7.049132425240824,5.570599539946208,6.010009258132661,9.503229688477035,10.809350510824911,0
0.07992104965877048,-0.2152039210048291,0.8147737913437629,4.146819215388237,1.6824676855047889,10.91042977972809,8.464965639948588,11.792552102757847,0
0.46630013253740055,0.03861144102426583,0.906946588163088,2.695875921839292,8.730175720338918,5.446994464239475,10.205286721905631,10.637361692985884,0
-0.33565772267701155,0.18232367881190595,1.159199525086,10.080086745604344,-1.1825309252850857,2.6085452426161697,12.205128305789469,10.479076126784243,0
0.2760328810270593,0.21176429926342913,1.1666839255775634,9.541434749332254,-2.3564058146472986,3.794988314715604,12.174521148906445,10.535348202498891,0
1.0007750887460767,-0.515276481011639,0.9479117752321288,9.858691745272544,2.358993044071122,6.133028046482938,14.715968754255295,11.84789787807218,0
0.20724944587964148,-0.18743942722756837,1.173343229813667,-3.2828771350648527,4.862681812842536,3.4883961067234015,12.061592791362115,6.825823327209998,0
0.08084682429625412,0.08826661191975314,1.129728290856868,4.98919100292495,2.96200265035301,5.234015499574925,11.360515899117267,7.814115741026368,0
-0.27734505782043767,-0.00962657792118375,0.894554702527574,1.6176321003683132,4.686891662151251,1.3464064815525574,9.366114818397707,5.137752181494516,0
0.563602576880357,-0.3734881479686373,1.0901635868393453,8.042792375371207,9.04160867180995,8.978445345142479,12.828086012377874,15.068167684997029,0
-0.008658548976040993,-0.009282088688189598,1.0393701064774898,2.5091665914993992,4.553491273338467,6.350681568011254,10.394476157458897,8.20739642874305,0
-0.11604664069016488,-0.19486585740594775,0.9142407714885747,9.048259324349594,8.918043647941005,12.120109018983499,9.419531376082633,17.558460693902113,0
0.046865000339976044,-0.4240867255260982,1.0407578947240035,-0.8943258776350946,2.048989588758646,6.405066871876285,11.248212633368261,6.78402968326762,0
0.16399661975625116,0.016236532494903855,1.2955525874312883,0.11750687686678507,2.2414380939232026,17.537890003930666,13.059919689947716,17.680934318778867,0
0.4467674689160966,-0.1332466939997446,0.7477420714426237,8.032052275429082,6.903854503770463,4.01023927918152,8.811776541361354,11.325152972068302,0
-0.18651604759050452,0.3182924473164134,0.8538945531434564,6.493812777683772,0.7183663500426309,6.972404985928973,9.301796739961148,9.55510784304865,0
0.5309099301533755,-0.12082696651503426,1.032210232294637,3.9940529535934166,12.65919456907319,15.55660445734014,11.670143415684468,20.450320495676724,0
0.11621485930756528,-0.17306071971991516,0.9976185575204899,3.4108559109709757,15.154045681138662,0.5728153325609799,10.191656845396215,15.543717571953625,0
0.10588000060930575,-0.46627771174230886,0.7245879066589658,10.346342419101587,8.157564245214898,-0.8842520485007297,8.681319677751144,13.205095893380976,0
-0.1358351276012369,0.09066421440928712,1.0434289374047574,10.820751742079684,-4.411484067694225,3.895822105597874,10.561321551200486,12.317763182563041,0
0.22742940099567258,-0.3332996670117628,1.3933693057230119,9.298940938591748,0.4050383387134717,9.166038607347044,14.50617393594338,13.063331213232784,0
-0.5539070695694449,0.022794334425831,0.7430453555507328,6.561960870200249,1.4833404294700028,10.6440720272666,9.270647354993294,12.59189813385491,0
0.30917237016729526,0.5150035609231836,0.9979116597727656,5.127444417143315,2.95603153776271,7.356656247077754,11.647505754232784,9.441885396509008,0
-0.1560679846058434,0.05876660781907007,0.7719605856403035,9.469189051458311,5.516215061419197,0.9907083875197689,7.897682418251638,11.003439144430615,0
-0.05080533427037583,-0.38782715348949454,0.6591291445014513,-0.5708544904276271,8.499781516243727,6.296391432052465,7.664478534807855,10.593238680344346,0
0.00855335684635505,0.11406929530782065,0.9737383421212265,-0.5956538676546783,-7.19474092530621,-2.4195868926934736,9.804342522384449,7.614033178521229,0
0.11817101877410956,0.0847130269488559,1.0704105259160797,14.43625003309738,-0.5106962497688192,8.802064933271684,10.802404272220546,16.91574629648846,0
-0.1566906864016172,-0.10486781326706153,0.9289282003896493,9.268883943167896,7.585071598816899,7.170716376952657,9.478696276089755,13.95939447360778,0
-0.1640966755517397,-0.3288699695742037,1.0146407190184166,10.749932624784797,3.104064673490875,4.670667286815644,10.791565986941283,12.124825847770202,0
-0.059055439491490495,-0.06924594375485647,0.9256056784959251,6.056579313572242,-0.7541156006413798,3.916252494024936,9.300690392244737,7.2517499210658425,0
-0.057631972335543735,-0.13128587002049538,0.6823346104541563,3.64730003810946,6.844677407366875,3.708891412460228,6.97235931751906,8.596992607204744,0
0.6093695942042664,0.21031930533654936,1.1692666567007262,-2.978739975403929,5.842697916301356,6.236124382875575,13.35196624849694,9.049820887780978,0
-0.7577326794334117,-0.38647018180472725,1.2452412032512048,4.048264779341219,8.401379194825118,8.023658824817685,15.080264152792633,12.302468087175422,0
-0.1724535203734553,0.22879413152026032,1.2683665392163064,0.5462889175281864,8.244513752332283,2.685049825999412,13.003232863833741,8.68791868987675,0
0.4502621832114164,-0.05970150320373664,0.703386204770788,3.407777910444134,10.110333268262462,15.646575923233957,8.372887531652086,18.937981075177213,0
0.6795863615926284,-0.10224431542606695,0.8324423774047556,-6.085756710912907,7.152218576616251,16.21659083580287,10.79468311067506,18.739489951649208,0
0.11568677217071394,0.07548280117382186,0.7707069444059946,5.769835492692555,14.296539044475796,8.003980093604676,7.829880437681985,17.370829790248237,0
0.10003476410733608,0.089378310637166,0.7871886496357452,7.087274437937374,5.381665028366474,13.492219005274379,7.985370414437342,16.16266534710381,0
0.365163182463396,0.5735048400527396,0.6821742841838727,3.065623885624963,1.1257809537915358,8.553196826054512,9.631270453021726,9.155468776051997,0
0.2608925888426432,-0.47461077638518534,0.8104535939581494,2.9182168884140003,3.750588720965297,6.073123828256426,9.747591291871268,7.711403153447028,0
0.04961316796202181,0.296910824997112,0.7757728380481036,-3.570642647969615,11.704314125779582,3.5005422179844277,8.321303988491843,12.72769633100642,0
-0.5667869779210054,0.4631544509973081,0.7410726901887189,10.545550864307113,4.357922307559015,1.4160906956584638,10.416084945712516,11.498062564133988,0
-0.1849492626374293,-0.11829656772250238,1.1303664339094286,-4.475536777851637,11.12099370349043,10.165488026664207,11.514897231821791,15.717635866224596,0
0.25737816601657165,-0.3207812238585278,0.983424834592955,5.594743363330329,-0.7069389323409903,-9.608466655554755,10.659589669477947,11.141074787761536,0
-0.541626916006398,0.44054933369070787,1.0870836655328593,2.655044141460069,2.24005173893913,18.011450102723952,12.919730366483218,18.343375534212353,0
0.44879829940163457,-0.14680093564331032,1.1825079341180005,3.749324673937141,1.6422034702590538,7.232924038958648,12.733010023178226,8.310803685665462,0
-0.2343431268974283,0.18767012285778495,0.7445442078891442,10.021676378163475,3.4389280987106665,3.583539825440325,8.027968943878603,11.184899712436335,0
-0.5404179178105147,-0.37882848286097376,0.8906468499096236,8.932947620996366,5.2023648073740825,5.591587157141319,11.085189924269836,11.752786891813225,0
0.026002703812296347,0.11003396756419677,0.8219556848999618,3.61747076612016,7.779495438545011,-0.3402583124875189,8.296955842734334,8.586176083757744,0
-0.18461707256808738,-0.106109683846846,0.7385108229562073,10.124948581312552,-1.0770742576675252,11.406034184483218,7.685967500016785,15.289613747520008,0
0.23882782257200316,0.27742071791752876,1.0540740127284236,3.572743684322621,-3.570017023213982,13.143841468069128,11.158283953519746,14.080841150926974,0
0.24936757518368363,-0.41283065494743476,1.1957688579714523,10.142243512654643,-0.6711299852592303,0.3838397788443517,12.89370582459391,10.171669081469497,0
-0.26833207586231295,0.5113502717373123,1.026987821800706,6.973334679823049,-3.540592585231927,5.217875631916844,11.782127097724587,9.40156468475188,0
-0.27259190084235907,0.10338683867875943,1.0922054996216715,6.342222720379111,6.043338024515396,8.401438904043605,11.30445945731446,12.137952841061136,0
0.41645403996433167,0.07951374578471691,0.8717023912736475,14.331117957590248,7.388147646274984,-1.1768879504872416,9.693407358217877,16.166345684956955,0
-0.18239278025557384,-0.2512181551886865,1.1558553836622136,5.778445829517593,-4.090653518501339,7.862163695342291,11.968205194291615,10.580052002965534,0
0.1741708441258781,0.20619893432614353,1.0257188011235996,-3.6381017151277746,4.782195833444723,9.233464892162475,10.606377998351713,11.016444752905935,0
-0.4231842750535732,-0.2472801407038221,1.133131127779601,9.678586924664275,8.185525069334595,11.385644638180128,12.345924636827291,17.038508424915232,0
-0.10372607597193996,-0.37297082330196213,0.8577556890857048,6.060395436152225,5.064175828685589,9.640505148025895,9.41069155816921,12.462488081257765,0
0.5125861435431617,-0.0011427719102479928,0.8700596862594362,4.027634082719524,-3.1449718450953963,8.949974971780746,10.098265782469573,10.306053376837733,0
-0.36713754957215444,0.21509173436675627,0.9813417892427477,12.237890703072946,1.5591185518599056,1.8071885024387022,10.696196248259952,12.468470227035056,0
0.0991765014244514,0.5219678695809686,0.9534143172940263,-0.9401226820466917,8.414601340875334,8.852663371997169,10.914601668090887,12.249856944514082,0
-0.21517627641934375,0.40036809909332954,1.1813806465586723,5.5075896234863935,4.907688100691521,6.496521614487774,12.658023845643072,9.829737485910343,0
-0.382434898870182,-0.4254864367073276,0.7635422260830539,17.311751016296217,2.384162344351777,2.2886815632046,9.540921814518818,17.62438698599786,0
-0.09847161458570393,-0.2615506153315605,1.1712863863301566,8.04545158271847,6.101126731409066,5.6021433491652175,12.041665923209255,11.547166261346439,0
0.2855730302703465,-0.25397037742867434,0.7461641977991211,11.306591101330921,8.92410552224377,4.185290134364648,8.383399777573878,14.999843839642045,0
-0.4151229857248697,0.17612727228577002,1.1788567419163962,-2.0738222523611487,1.9772608983360351,8.469702005823095,12.621612921024386,8.941261178487107,0
-0.5450832454956588,-0.053759811030297935,1.029615462229965,-1.2322590880768933,-1.2760170814336487,0.8236661249663371,11.662391958192446,1.9557883161721785,0
0.24271248527588413,0.3695143439571863,1.11177843577362,-1.4496505805266882,3.0905211315451133,8.334457804838166,11.964537145874651,9.006441837417043,0
0.04057601621361338,0.2616461889437684,1.0442508012525626,4.832529294202625,4.002219117704589,12.088081209502713,10.772951671650555,13.6195743168786,0
-0.09300406414935934,0.05054465423691553,0.9980160907154376,2.545645001340425,1.8921967813315144,-7.440235087945899,10.036137879419314,8.088128046466139,0
-0.21534032276158224,0.07374775875319138,1.2689131037028953,12.371581914632797,11.221718789465266,7.012734244295488,12.891666499243206,18.11522710984937,0
-0.08962999550419266,0.5898072871183156,1.2909446419687696,12.021066298066465,1.7336258647779608,0.1672207389900704,14.221266612576473,12.146582085388667,0
-0.15162427752777577,0.39738074004523194,1.008264455725407,10.419780535281841,7.083568594550399,1.3503663217938353,10.943027856923182,12.671710998920947,0
0.5727227950471984,0.1611033613677851,0.8928991392586269,4.4492923514694915,1.9752269753041145,-4.566377760539874,10.729559943909493,6.674543421445928,0
-0.9455947756214323,-0.11774040984993137,0.9153070829541896,5.37837440926379,-1.1777692290674615,12.95828208124371,13.21287001336305,14.079457593964461,0
-0.2649962292489458,-0.38525899413303866,1.0765355633064717,3.301165197343799,-4.790529093878201,5.671836367286322,11.737019694710165,8.125059288197171,0
0.06025546259089441,-0.24405059254401418,1.1489706981724583,8.476290947941393,0.21082422161822745,6.629806875234594,11.7614840804723,10.763191640469943,0
-0.021599181593435383,-0.21407233484482407,1.124477715806756,3.54422338931838,5.719935090356077,2.3402907815003293,11.448771211520476,7.124334201401115,0
0.34424911821434423,0.30521290943838114,0.6840003874856748,14.420778591190905,5.590500750841608,7.226829584616897,8.24329367158388,17.071602726938224,0
-0.006185115835691119,0.035175674510978604,1.236499785191444,9.507933242662936,7.656609579911526,12.493389231629141,12.370154819215848,17.467376428620152,0
0.31489235071555055,-0.01440504854049085,0.842144820093464,11.412105393570709,-1.1860527827012257,0.6601982183985777,8.992066480920123,11.49255117042755,0
-0.009542229353381513,-0.8086317049004327,0.9414642733607365,11.951691646061136,13.63392201282327,2.069744269707434,12.411008284284852,18.248578136289446,0
-0.4463361035039259,0.10407227765614739,1.4407583550361904,11.479535438853901,-3.72700233315984,-1.4438879594408611,15.118966875663808,12.155455265957743,0
0.06175257580765137,-0.2126287393714896,1.3105476850815567,3.968342562857943,-1.3274173411682852,10.16996519070641,13.291198577623524,10.997180160113968,0
0.2810020422353244,0.23403711249583978,0.9148943664451078,-2.0558324107715764,5.649525113691424,8.543503424375707,9.852751998902686,10.446771351653505,0
-0.07966568700115477,-0.4849309450375491,0.9361602189861025,6.598589525793247,1.3599281512186732,0.15537292522594637,10.573081853236943,6.73905995315954,0
-0.18199736864947155,0.14238178958427805,1.1133722419818168,-1.760695058581745,5.08365000659593,-2.8658649507236236,11.370986612498367,6.095631746969553,0
-0.2473160234615731,0.40773827156985104,0.739893662025485,-0.5995175211850254,3.430464680103559,4.247846008920068,8.802603845846397,5.492877651572444,0
-0.1678769781642571,-0.25837523637705945,1.191122723410328,-0.2339221612413258,5.422478904681518,5.732434111901613,12.303307623541325,7.894225604613103,0
-0.0006023669159406978,0.15837206760677752,1.2443345032237347,1.0795363024296316,5.913512788005496,3.862950248042255,12.54372524634132,7.145447273685371,0
0.1948170796259466,-0.2617921424564161,1.1083759563083968,-0.8096640750901853,-2.841589600848323,14.361655394969004,11.554159774247783,14.66244635311527,0
0.05202583603840721,-0.20022076554842227,1.1609533904793055,9.288025383843738,12.489427411184387,8.07185719940205,11.792403560927205,17.533057099026063,0
-0.32049747195471257,-0.29867004736650093,1.2419926599740128,12.764970186519548,6.184540816577159,2.015389445369009,13.169921010213361,14.326716427400473,0
-0.035882012972252963,-0.2198770476923841,0.6667083730347119,-8.511907533540384,3.685982672040228,9.215924741612273,7.02946292138633,13.075637917944333,0
0.15768111499953777,0.4061136851027326,1.4053730015807782,1.4530801359030838,13.136837065587736,4.317717166596625,14.713479985467018,13.904337866287596,0
-0.29575922705024904,-0.19543123429824785,1.0433826455540696,1.0720677639019245,5.052012436168617,-3.787310143983076,11.019592700132373,6.404363908485927,0
0.0014861249705588712,-0.22022974395772743,0.8117599096860921,12.024127687035124,3.831246208269657,11.354441515788128,8.41104927856618,16.9759075244288,0
-0.4171591798647817,0.2566793350822168,1.0910746061884984,1.6949010933171542,19.593850634856388,-0.4903657431683941,11.959723486239524,19.673132210689353,0
0.03244326601473977,0.24367419610042812,1.1436598394480404,12.225311635987559,10.987310793988573,-2.036777644903898,11.697809657030716,16.562841128728213,0
-0.17382129214144634,0.027230246148084742,0.7556373533032866,2.1755286504089533,10.131878420129201,4.354602522948629,7.758499452949669,11.240571531817258,0
0.15705982200968066,0.27845851258144927,0.9172101999101302,10.449401776459547,-4.11252296155191,6.909094560260678,9.713297492293577,13.18478024988628,0
-0.09681303559386187,0.42020106615814323,0.957734604727869,10.643975555563063,2.9653850416488696,12.095117449726075,10.503319822582696,16.382295022228327,0
-0.08087613943893136,0.1892572679551676,0.7828689020905908,1.0227527413877588,5.292037901845715,-0.6686567686173639,8.094708032195642,5.431278873231017,0
0.3441406932863008,-0.09883537710651885,0.7953654447380578,-1.795415165029505,6.568891075794873,-5.955525762694474,8.722427639291324,9.046664174743807,0
-0.02329546288491981,-0.10227019121463661,0.7939846198469578,4.014591523420667,12.178685645022005,16.982591224810946,8.008829172579592,21.28017231718794,0
0.11110983955674121,-0.15670448202443568,0.9901426776830233,-5.951798912932457,11.786652081068656,13.76637748205478,10.086050829250162,19.07517304137944,0
0.1920941009691012,0.04615779465904137,1.0860243471070408,4.733207440438984,7.515113113544995,13.970140092848565,11.038476199839305,16.554304334444797,0
0.16542998779524729,0.08873467379454292,1.0149498179851097,7.301657811812939,3.7604370651092927,1.340659027035778,10.321647427728614,8.32180631523164,0
0.07001751053769503,-0.13672481361935127,1.0228988245836077,1.2276780066220865,7.744666944170408,5.159206532375958,10.343684700220077,9.386398212721435,0
-0.0473781701039555,-0.12418473097447762,1.2418814161647826,11.303991692759395,9.193046288062412,4.917225722146227,12.489739749990985,15.377627809482448,0
0.019222410127869533,0.44894308932222876,1.0461718323786644,3.035772862104935,-2.422827017443856,6.363694030208531,11.385933871948506,7.4553745269342695,0
0.420706283309987,0.04980287508303514,1.3060322910583155,3.7005239710199045,-1.861286684425795,5.353436484139095,13.730238339045947,6.768866077226321,0
-0.08634424742696489,0.36246627749540167,0.9829960830730086,11.072161856912391,12.984731541356808,13.083702125276208,10.512461323220075,21.503006363988483,0
0.4085271681440549,-0.030676162264997846,1.2621644000777956,-3.4447970866347077,9.08659042970474,12.888928903873744,13.269869806696866,16.141785554714843,0
0.18046418034563041,0.2405214652325619,0.9468370601796362,3.5354382238559126,9.955201997316362,-3.222216327089015,9.934376246926904,11.044819975926822,0
-0.010787588052229083,-0.49809316234155154,0.8376406410664156,2.6722996645328263,5.4745494578042155,10.383462424991516,9.746050553909248,12.038611597448329,0
-0.07285116042774893,0.2726388380744477,1.1700493832041172,5.216160896282219,11.946580438043457,13.345242148005168,12.036007588642462,18.65541762189847,0
-0.0534610193450777,0.07373510565278257,1.1193006480440748,4.085580755454261,4.259185078043034,6.55230605176229,11.229999497359417,8.818465979654476,0
0.25013346899940964,-0.40439527991396845,1.231350126271853,4.067683359075019,7.025496844769693,5.754702976729524,13.199717528038558,9.950892431131209,0
0.2464696484906233,0.03791373721865918,1.02825195445279,16.43278988799456,10.97486599965941,-0.4980103264316682,10.580580423270547,19.766949220825374,0
0.27745141511855015,0.5293168845970974,0.9234254640721431,5.5813762747664795,0.9051236785398444,6.65149499686081,10.999410164948461,8.730028389830357,0
-0.23404548901289737,-0.7642732023568285,0.8448039343624298,2.2535276631798946,0.7834046198372278,9.245953929202258,11.630066664823072,9.54881007183775,0
-0.8981831025786086,-0.27444008564505395,0.8725925474629213,-3.2664536378714075,14.977135668413075,-3.214250770168354,12.819781590395486,15.66255790769638,0
-0.06774540509064589,-0.27248593638013574,1.0492628327597286,-3.7162130552593453,9.25622975018302,2.555989747006199,10.861816227716366,10.296655391293527,0
-0.05981038420673267,0.37389929191584054,1.2470798952316549,6.445111000313354,5.64818116316098,7.301156548599932,13.032982113258342,11.258254447533613,0
-0.17371698840071345,0.13601798737653167,0.9783962016321429,0.8958337940816268,2.5525683664952794,8.83269884703933,10.029644122884825,9.237677867015117,0
-0.2455959025437284,0.2781881666172738,0.8432676195268661,6.941896601039857,3.8314789319427933,-5.951057359801322,9.213068335438829,9.913891411806752,0
-0.5209574768821078,0.1291093733953236,1.0933171448579408,9.106243768036478,4.526593752778273,1.3432898390724701,12.17952504106061,10.257590075517243,0
-0.08711975144001519,-0.1193984776702368,0.7613154469057675,1.5667677034011667,4.578650549628746,1.0781814649682393,7.755301781737888,4.957950903693747,0
0.25651759696233195,0.23480318601330125,1.1741588995662733,9.71105751994522,-1.0172904849441,5.260226316504908,12.245745935401436,11.090964745561731,0
-0.2540350497105127,0.33192792885294375,1.1001369649128887,4.187960133027943,4.208002459076005,-0.29281126100291566,11.768650296451884,5.9440754710881025,0
0.07992945604632078,-0.13239696560839043,1.019137163682311,4.968762142729231,3.090595494038972,4.006482922123598,10.30804653096112,7.091705235277424,0
-0.4560711952840749,0.2149235667548202,0.9210489057132576,5.88483608213112,10.744815897499377,11.901234212480588,10.50011505379845,17.07986358742441,0
-0.35112852211861817,-0.3265753863727806,0.8351931927315777,3.1303985619272057,-3.2465856485801865,1.0609150131936183,9.630630255673312,4.63306099628554,0
0.1649628505025473,0.44293538373672775,1.1275574457591633,7.857366745351546,-3.3662012586752468,0.5241511222494859,12.226161661367218,8.564126194996112,0
-0.4704842148113434,-0.031558953710925354,1.0079083248591014,-0.7282598719903488,7.055043372086644,1.4367989417493594,11.127580847903351,7.236600764322097,0
-0.01660795578131871,-0.28797771526121696,0.9518857559232508,-3.8384924782258203,13.928489838322328,14.49458145256203,9.946323345899646,20.465330321463167,0
-0.034121520517568504,-0.13405794315944589,1.3144473000717252,2.669416346712391,-2.4800980693216843,11.69898866075842,13.217062892157319,12.253285508389272,0
-0.32215752316547835,-0.3473099162097182,0.9116353129741424,14.804554240209345,6.056698993560653,4.375871085664807,10.273697442942243,16.58332526088349,0
-0.013352485111602674,-0.29181499255207416,0.8308958327553968,13.214391078745612,9.886380476803783,8.738204104444897,8.807509089561629,18.673962126048565,0
-0.7152219480288659,0.12060302253256297,0.8850421696213653,10.26472988391284,18.298027524382896,10.358981279189697,11.442845651297972,23.39852525300195,0
0.026160028405340284,0.10433702825833673,1.2834879057039954,9.149125680529334,-1.4891165963425204,4.7394706770099875,12.879874869890536,10.410886189650792,0
-0.27212357716568497,0.08256117869994503,0.9504980336480591,10.961151004625536,6.450877569513892,2.071230832675729,9.921260511883556,12.886064175119083,0
-0.3142925915896462,0.3389359271778796,1.1888373666823553,-3.9724930516001002,8.81664241671265,-2.6569041195261818,12.75535840453063,10.028610275085125,0
-0.1873667349182515,-0.004758158338676097,0.9182526267613097,8.325902076956849,6.605837270540825,-1.5034564808582163,9.371855845982413,10.733970040473153,0
-0.4228637842918348,0.3983047095063285,0.6436686896717263,11.094917136900424,-0.009038785842098385,6.289043061657225,8.67046598369574,12.753404667213971,0
-0.08319608931571683,-0.3341036000762214,1.1005860788060464,8.848903587071462,-0.2384711216110622,-1.2806492083981356,11.531853804670737,8.944273339075645,0
-0.40637867812314726,-0.04509692803370431,0.9287457623519166,-0.30568362914456326,2.0536570079722005,8.105529961571506,10.14764038601012,8.367231653626765,0
0.12724749196053903,0.25674907978539613,0.7021794725699457,14.336071248728144,17.269434959910253,12.01389596087099,7.5839832929635485,25.457612198354592,0
-0.4157430246854616,-0.02347529566880762,0.7352530297605928,-2.1669478133240228,7.520198735228486,4.42773985761971,8.449795085405832,8.991881454387402,0
-0.3166778493381214,-0.08662602928182196,1.2619165751782746,6.1837910990801355,5.534978824233142,1.0755034833926342,13.039257539907014,8.368510661077137,0
